Folder: ElectrochemLabUtils/VFSWV_data_prep/Example_data/CoPc(OMe)8_VFSWV_txt_data (part 11)

File: CoPc(OMe)8_CNT_VFSWV_scans_61_60_C02.txt
Ewe/V	<I>/mA
-0.122083	0.009462
-0.0720606	0.0240988
-0.132083	0.0126439
-0.0820941	0.0211322
-0.142036	0.0143083
-0.0920857	0.0208287
-0.152085	0.00812071
-0.102051	0.0203294
-0.162065	0.0135348
-0.112103	0.0234526
-0.172045	0.00971656
-0.122122	0.0170888
-0.182083	0.0061822
-0.13206	0.0173042
-0.192082	0.00734726
-0.142089	0.0202511
-0.202085	0.00760181
-0.152127	0.0166188
-0.212076	0.00347024
-0.16208	0.0131432
-0.222015	0.00184502
-0.172091	0.0134859
-0.232075	0.00087576
-0.18204	0.0148663
-0.242063	8.2732e-05
-0.192005	0.0156202
-0.252001	-0.000426373
-0.202039	0.0123012
-0.262023	-0.00386283
-0.21205	0.0145433
-0.272014	-0.00036763
-0.222037	0.0151209
-0.28214	0.000484141
-0.232056	0.0155811
-0.292135	0.000738694
-0.242028	0.0199378
-0.302165	-0.00179704
-0.252039	0.018479
-0.312134	-0.00310896
-0.262038	0.0134859
-0.322129	0.00404787
-0.272056	0.0147293
-0.332098	0.00490943
-0.282132	0.0156692
-0.342055	0.00121843
-0.292112	0.013574
-0.352104	-0.000455744
-0.302138	0.014367
-0.362107	0.00256951
-0.312111	0.0183126
-0.372064	0.00202125
-0.322148	0.0153461
-0.38209	-0.00107254
-0.332121	0.0138481
-0.39212	-0.00274671
-0.342101	0.0170202
-0.402165	0.000895341
-0.352066	0.0104998
-0.412053	0.000601627
-0.362126	0.016002
-0.422072	-0.00384325
-0.372129	0.0185476
-0.432048	0.000366656
-0.382143	0.0195658
-0.442043	0.00198208
-0.392093	0.0175
-0.452073	-0.00273692
-0.402096	0.0178231
-0.462114	-0.00342226
-0.412111	0.0199084
-0.472041	-0.00504748
-0.422041	0.0186161
-0.482059	-0.00612443
-0.432094	0.0146803
-0.492039	-0.00251174
-0.442082	0.0179993
-0.502008	-0.000563439
-0.45205	0.017079
-0.512053	-0.0052237
-0.462076	0.0162076
-0.522033	-0.000602601
-0.472026	0.0119684
-0.532078	-0.00530203
-0.482082	0.0147587
-0.542009	-0.00811189
-0.492074	0.0151503
-0.552042	-0.00595799
-0.502088	0.0188217
-0.562019	-0.014133
-0.512004	0.0171377
-0.572014	-0.00837624
-0.52203	0.011283
-0.582055	-0.00898325
-0.532052	0.0164132
-0.592036	-0.0150435
-0.542043	0.0116649
-0.601985	-0.0137218
-0.552019	0.0155419
-0.612095	-0.0161009
-0.562023	0.0115767
-0.622125	-0.0200073
-0.571999	0.0186259
-0.632006	-0.0246872
-0.582006	0.0108327
-0.642005	-0.026332
-0.592093	0.0103627
-0.652027	-0.0255487
-0.602058	0.00611366
-0.662011	-0.0295237
-0.612042	0.0159041
-0.672033	-0.0278593
-0.622029	0.0184105
-0.681979	-0.0326077
-0.632036	0.0119977
-0.691997	-0.0299838
-0.642035	0.0203392
-0.701985	-0.025862
-0.652069	0.0171475
-0.712114	-0.0292202
-0.661988	0.0191448
-0.722075	-0.0295041
-0.672071	0.0149838
-0.732109	-0.0290537
-0.681971	0.0178133
-0.7421	-0.0300621
-0.692047	0.0170594
-0.752031	-0.0318636
-0.702084	0.00920745
-0.76208	-0.0358091
-0.71211	0.00797385
-0.772098	-0.0397449
-0.722132	0.0116355
-0.782139	-0.0397253
-0.732082	0.0120369
-0.792073	-0.0353196
-0.742112	0.00226601
-0.80205	-0.0389029
-0.752058	0.0065934
-0.812072	-0.0363378
-0.762099	0.00441991
-0.822064	-0.0371211
-0.772067	0.00806197
-0.832109	-0.034879
-0.782154	0.0116159
-0.842035	-0.040254
-0.792001	0.00800322
-0.852084	-0.0378651
-0.802054	0.00675983
-0.862083	-0.0357994
-0.812045	0.00755286
-0.872113	-0.0385309
-0.822109	0.00653465
-0.882097	-0.0358679
-0.832093	0.00774867
-0.892062	-0.0355056
-0.84207	0.0107348
-0.902069	-0.030209
-0.852046	0.00646612
-0.912106	-0.0306887
-0.862072	0.013339
-0.922098	-0.0350553
-0.872132	0.00768993
-0.932097	-0.0359658
-0.882093	0.00981446
-0.942039	-0.0341448
-0.892066	0.0118313
-0.952042	-0.0370721
-0.902073	0.00662277
-0.962068	-0.0378847
-0.912057	0.00622136
-0.972029	-0.033528
-0.92201	0.0117628
-0.982021	-0.0374539
-0.932028	0.00716124
-0.992073	-0.0325881
-0.942016	0.00904101
-1.00205	-0.0365826
-0.952046	0.00206041
-1.01204	-0.0352609
-0.96206	0.00900185
-1.022	-0.038384
-0.972018	0.0060745
-1.03207	-0.0391281
-0.982017	0.0038129
-1.04211	-0.0403813
-0.992096	0.00657382
-1.05204	-0.0419282
-1.0021	0.0074158
-1.06201	-0.041703
-1.01203	0.00300029
-1.07206	-0.0380805
-1.02207	0.000601627
-1.08202	-0.0423981
-1.03201	0.00479195
-1.09201	-0.0495452
-1.04206	0.00908997
-1.102	-0.0487424
-1.05202	0.0031961
-1.11199	-0.0454625
-1.06202	-0.000250144
-1.12213	-0.0525606
-1.07199	0.000758275

File: CoPc(OMe)8_CNT_VFSWV_scans_62_61_C02.txt
Ewe/V	<I>/mA
-0.122068	0.00106178
-0.072072	0.00362282
-0.132048	-0.0104862
-0.0820635	-0.00432107
-0.142074	-0.0124885
-0.092101	-0.00406962
-0.152031	-0.00554106
-0.102089	0.0049825
-0.162034	-0.0102441
-0.112012	-0.00144339
-0.172068	-0.0126934
-0.122057	-0.000744921
-0.182037	-0.0142207
-0.132052	-0.00371573
-0.192002	-0.00928484
-0.142097	-0.00555968
-0.202008	-0.0153662
-0.152089	-0.00348291
-0.212027	-0.0144069
-0.16205	0.00400465
-0.222079	-0.015599
-0.172011	-0.00490778
-0.232018	-0.00998331
-0.182014	-0.00136888
-0.242051	-0.0166327
-0.191952	-0.00266338
-0.252001	-0.0157759
-0.202043	0.00061476
-0.261981	-0.0135874
-0.21205	-0.00684486
-0.272003	-0.0163719
-0.222034	-0.0061464
-0.282098	-0.0142486
-0.231979	-0.000726295
-0.292124	-0.0128051
-0.242047	-0.000595915
-0.30213	-0.0158877
-0.252031	-0.00150858
-0.312118	-0.0144349
-0.262046	0.00366007
-0.322114	-0.018039
-0.272026	-0.00328734
-0.332044	-0.0147981
-0.282144	0.000558883
-0.342131	-0.0104955
-0.292143	-0.000521412
-0.352092	-0.0108401
-0.302146	0.00149017
-0.362114	-0.010868
-0.312115	0.0011456
-0.372079	-0.014379
-0.322076	-0.00127576
-0.382124	-0.0146304
-0.332132	-0.00128507
-0.392112	-0.0132335
-0.342032	-0.000763547
-0.402054	-0.0141369
-0.352054	-0.00109881
-0.412076	-0.0167165
-0.362095	-0.000344467
-0.42206	-0.015599
-0.372079	-0.000111645
-0.432044	-0.0199015
-0.382067	-0.00106156
-0.442112	-0.0172939
-0.39215	-0.00319421
-0.452058	-0.0177596
-0.402153	-0.00342703
-0.462091	-0.0185605
-0.412088	-0.00320352
-0.472087	-0.0189237
-0.422041	-0.00314765
-0.482067	-0.0218386
-0.432056	-0.00485191
-0.492028	-0.0219876
-0.442032	-0.0035481
-0.502042	-0.0202275
-0.452081	-0.00202079
-0.512	-0.021522
-0.462122	-0.00348291
-0.521984	-0.0197246
-0.472064	-0.00515923
-0.532078	-0.0177875
-0.482063	-0.00379955
-0.542028	-0.0216803
-0.492093	-0.000716982
-0.552042	-0.0191472
-0.502073	0.000530945
-0.562023	-0.0209353
-0.512019	-0.00343635
-0.572041	-0.0219969
-0.522079	-0.000251338
-0.581998	-0.0267186
-0.532078	-0.00230017
-0.591978	-0.0242693
-0.54202	0.00633287
-0.602019	-0.0275567
-0.552039	0.00163918
-0.612019	-0.0315799
-0.562007	-0.00128507
-0.622045	-0.0278641
-0.572029	0.00495457
-0.632021	-0.0258711
-0.582006	0.0037532
-0.642032	-0.0284601
-0.591986	0.00881941
-0.652	-0.0280782
-0.601996	0.00406984
-0.662042	-0.0270538
-0.612026	0.00784156
-0.671987	-0.0317475
-0.622033	0.00440511
-0.682055	-0.0228258
-0.632055	0.0130568
-0.692024	-0.0296894
-0.642024	0.0153943
-0.701977	-0.0271376
-0.652	0.0125725
-0.712137	-0.0261598
-0.662022	0.0119392
-0.722087	-0.029559
-0.671999	0.011306
-0.73212	-0.0296521
-0.682044	0.0124235
-0.742081	-0.0360873
-0.69199	0.0115853
-0.752084	-0.031226
-0.702099	0.0112221
-0.762057	-0.0322132
-0.712103	0.00640738
-0.772064	-0.0351002
-0.722075	0.00745973
-0.78204	-0.0320269
-0.732139	0.0111383
-0.79207	-0.0278082
-0.742085	0.0133082
-0.802069	-0.0308442
-0.752046	0.00722691
-0.812099	-0.0317568
-0.762103	0.0121255
-0.822106	-0.0303972
-0.77206	0.0121255
-0.832101	-0.0285439
-0.782093	0.00997421
-0.842127	-0.0302761
-0.792043	0.00914537
-0.852115	-0.0286463
-0.802115	0.0127867
-0.862102	-0.0336567
-0.812102	0.00563441
-0.872075	-0.0282924
-0.822148	0.00439579
-0.882047	-0.0338429
-0.832166	0.00534571
-0.892066	-0.0321107
-0.842039	0.00593242
-0.90208	-0.0346252
-0.852111	0.0070779
-0.912091	-0.0267279
-0.862045	0.00791606
-0.922098	-0.0302854
-0.872117	0.00881941
-0.932078	-0.0325857
-0.882063	0.0109614
-0.942058	-0.0287767
-0.892054	0.0114829
-0.952042	-0.0318407
-0.902084	0.00553197
-0.962053	-0.0318779
-0.912015	0.00810232
-0.972006	-0.0329023
-0.922056	0.00874491
-0.98207	-0.0311049
-0.932063	0.0120882
-0.992047	-0.028935
-0.942039	0.00734798
-1.00204	-0.0335729
-0.952034	0.00666814
-1.01203	-0.0279572
-0.962026	0.0110079
-1.02204	-0.0302016
-0.972048	0.013392
-1.03199	-0.0336567
-0.982028	0.00595105
-1.04204	-0.0361432
-0.992089	0.00672402
-1.05206	-0.036078
-1.00202	0.0041816
-1.06202	-0.0399429
-1.01208	0.0034645
-1.072	-0.0405668
-1.02208	0.00776706
-1.08205	-0.0412001
-1.03204	0.00278466
-1.09204	-0.0415447
-1.04206	0.00465655
-1.10204	-0.042029
-1.05201	0.00324099
-1.11201	-0.0467878
-1.06205	0.00526189
-1.12209	-0.0496935
-1.07208	0.00228177

File: CoPc(OMe)8_CNT_VFSWV_scans_63_62_C02.txt
Ewe/V	<I>/mA
-0.122125	0.0121348
-0.0720682	0.0135493
-0.132102	0.00632928
-0.0820559	0.0100261
-0.142078	0.00157378
-0.0921048	0.00995665
-0.152062	0.0023114
-0.102089	0.00991326
-0.162015	0.00225933
-0.112042	0.0166907
-0.172018	0.0029015
-0.122064	0.00825577
-0.182048	-0.000578348
-0.132056	0.0116922
-0.191986	0.000176632
-0.142013	0.0152762
-0.201993	-0.000187841
-0.152043	0.00931448
-0.212034	-0.000725872
-0.162061	0.0125687
-0.222076	-0.0011858
-0.172018	0.0093058
-0.232021	-0.00147217
-0.182037	0.00543545
-0.242063	-0.00462226
-0.192005	0.0114319
-0.252008	-0.00203624
-0.202031	0.00967027
-0.261989	-0.00272179
-0.212046	0.00984383
-0.272014	-0.00398009
-0.222083	0.0100868
-0.28209	-0.00591527
-0.232033	0.00675449
-0.29207	-0.00568096
-0.242028	0.00545281
-0.302092	-0.00825831
-0.251982	0.00513172
-0.312084	-0.00534252
-0.261977	0.00741402
-0.322117	-0.00383257
-0.272037	0.00849008
-0.332021	-0.00496937
-0.282151	0.00716236
-0.342124	-0.00893518
-0.292105	0.00606026
-0.352085	0.00122666
-0.302069	0.0061644
-0.362061	-0.00365033
-0.31216	0.00909753
-0.372076	-0.00575039
-0.322102	0.00842065
-0.382109	-0.00833641
-0.33209	0.00768303
-0.392108	-0.00710414
-0.342135	0.00240686
-0.402065	-0.00913478
-0.352127	0.00426393
-0.412069	-0.00728638
-0.362099	0.00675449
-0.422056	-0.00673099
-0.372076	0.007657
-0.432052	-0.00584584
-0.382098	0.00725781
-0.442005	-0.00850129
-0.392028	0.00493213
-0.452042	-0.00556815
-0.402088	0.00719707
-0.462103	-0.00914345
-0.412046	0.00841198
-0.472056	-0.00919552
-0.42201	0.00612968
-0.482063	-0.00843186
-0.43204	0.00841198
-0.492039	-0.00804136
-0.442101	0.00436807
-0.502035	-0.00921288
-0.452069	0.0044722
-0.512049	-0.00872691
-0.462038	0.00851611
-0.52206	-0.00772028
-0.472056	0.00808222
-0.532078	-0.0108443
-0.482033	0.00678053
-0.54202	-0.0144457
-0.492024	0.00669375
-0.552058	-0.0140291
-0.502065	0.00794337
-0.562007	-0.00864881
-0.51203	0.00691937
-0.57211	-0.0171705
-0.522056	0.0090715
-0.582078	-0.0184635
-0.532052	0.009462
-0.592055	-0.0121634
-0.542039	0.00868099
-0.602058	-0.0172573
-0.552046	0.00742269
-0.612007	-0.0159122
-0.562003	0.00755286
-0.622003	-0.0224814
-0.572037	0.00365648
-0.632059	-0.0210929
-0.58201	0.00430732
-0.642013	-0.027072
-0.592028	0.00988722
-0.652035	-0.0213967
-0.602054	0.012265
-0.662007	-0.0245728
-0.612026	0.00665036
-0.672018	-0.0303783
-0.622052	0.00752683
-0.682048	-0.0288076
-0.632051	0.00574786
-0.692001	-0.0308122
-0.642047	0.00756154
-0.701954	-0.0302482
-0.651993	0.0133931
-0.712099	-0.0282262
-0.662	0.00925373
-0.722129	-0.029337
-0.672064	0.0086376
-0.732097	-0.0317147
-0.68204	0.00671978
-0.742066	-0.0277489
-0.692005	0.00734459
-0.752065	-0.0339016
-0.702115	0.00730988
-0.762072	-0.0297188
-0.712106	0.00612101
-0.772067	-0.0321833
-0.722106	0.00570447
-0.782021	-0.0231323
-0.732113	0.0154411
-0.792074	-0.0333201
-0.742104	0.00627721
-0.802057	-0.0322614
-0.752115	0.0051404
-0.812091	-0.0287469
-0.762083	0.00839462
-0.822094	-0.0298663
-0.772102	0.00888058
-0.832051	-0.0321833
-0.782063	0.00501023
-0.84202	-0.0304477
-0.79202	0.0056524
-0.852134	-0.0356805
-0.802054	0.00666771
-0.862095	-0.0335284
-0.812049	0.00853347
-0.872102	-0.0344656
-0.822071	0.00469783
-0.882093	-0.0349256
-0.832063	0.00508833
-0.892157	-0.0341879
-0.842127	0.00419451
-0.90205	-0.0339276
-0.852092	0.0046284
-0.912114	-0.0335197
-0.86206	0.0125947
-0.922067	-0.0330077
-0.872144	0.00680656
-0.932105	-0.0310552
-0.882044	0.00705822
-0.942062	-0.0336673
-0.892089	0.00592141
-0.952092	-0.0336499
-0.902088	0.00745741
-0.962057	-0.033242
-0.912114	0.00532264
-0.972075	-0.0358367
-0.922037	0.00370854
-0.982021	-0.0318015
-0.932089	0.00440278
-0.992043	-0.0348822
-0.942024	0.00337878
-1.00204	-0.0344569
-0.952084	0.00402963
-1.01208	-0.0350644
-0.962068	0.00445485
-1.02209	-0.0365396
-0.971995	0.00358705
-1.03206	-0.0345264
-0.982078	0.00641606
-1.04208	-0.0348041
-0.992066	0.0065549
-1.05206	-0.0271154
-1.00208	0.0082471
-1.06202	-0.0357152
-1.01207	0.00378665
-1.07206	-0.0342313
-1.02209	0.00762229
-1.08204	-0.0412778
-1.03208	0.0102691
-1.092	-0.0308816
-1.04207	0.00787394
-1.10207	-0.0389781
-1.05205	0.00779584
-1.11201	-0.0412778
-1.06205	0.00536603
-1.12214	-0.0412778
-1.07203	0.00475857

File: CoPc(OMe)8_CNT_VFSWV_scans_64_63_C02.txt
Ewe/V	<I>/mA
-0.122064	0.00908017
-0.0720988	0.0117613
-0.132025	0.00424922
-0.0820789	0.01377
-0.142093	0.00443183
-0.0920857	0.010649
-0.152005	0.00571843
-0.102062	0.0134463
-0.162057	0.00475555
-0.112054	0.0127657
-0.17206	0.00438203
-0.12208	0.00917148
-0.182029	0.00343576
-0.132033	0.0126494
-0.192021	0.00457294
-0.142067	0.0115953
-0.202012	0.00354366
-0.152104	0.012666
-0.212046	6.57051e-05
-0.162084	0.00824181
-0.222087	-0.00127899
-0.17203	0.00892246
-0.232048	0.00116139
-0.182052	0.0108482
-0.242066	-0.00548741
-0.192044	0.00857384
-0.252024	-0.00596054
-0.202043	0.00740345
-0.262076	-0.00754596
-0.212088	0.00611686
-0.272003	-0.00643368
-0.222045	0.00626627
-0.282109	-0.000847363
-0.232052	0.00825842
-0.29212	-0.00383559
-0.242059	0.00586784
-0.302153	-0.006691
-0.252031	0.00458124
-0.31216	-0.00913968
-0.262042	0.00283811
-0.322125	-0.00279801
-0.272037	0.00643228
-0.332109	-0.00752936
-0.282121	0.00725404
-0.342085	-0.00638388
-0.292166	0.0040915
-0.352108	-0.010833
-0.3021	0.00527019
-0.362057	-0.0110737
-0.312141	0.00294602
-0.372102	-0.00831792
-0.322087	0.00341085
-0.382143	-0.0110488
-0.33209	0.00338595
-0.392104	-0.00989504
-0.342131	0.0027136
-0.402081	-0.00980373
-0.352096	0.0026223
-0.412053	-0.00919779
-0.36208	0.00173413
-0.422117	-0.0108164
-0.372102	0.00297922
-0.432056	-0.00994484
-0.382098	0.00238988
-0.442066	-0.00981203
-0.392124	0.0039919
-0.452111	-0.00912308
-0.402115	0.0067643
-0.462053	-0.00586924
-0.41208	0.00872325
-0.472056	-0.00621786
-0.422094	0.0110972
-0.482006	-0.00341225
-0.432071	0.00966952
-0.492028	0.00356027
-0.442051	0.0131392
-0.502073	-0.00606015
-0.452084	0.0115206
-0.512072	-0.00425062
-0.462034	0.0119688
-0.522075	-0.0053546
-0.472049	0.0115289
-0.532059	-0.00633407
-0.482078	0.0134961
-0.542043	-0.00606015
-0.492047	0.0114625
-0.552065	-0.00739655
-0.502096	0.0136289
-0.562007	-0.00775348
-0.512049	0.0143511
-0.57201	-0.00719734
-0.52201	0.0121348
-0.581994	-0.00496447
-0.532075	0.0146914
-0.592036	-0.0093306
-0.542005	0.0124834
-0.602012	-0.0103433
-0.552008	0.013687
-0.612023	-0.0105923
-0.562023	0.0138447
-0.622048	-0.0154232
-0.572045	0.0137534
-0.632032	-0.0161205
-0.58204	0.0140605
-0.642009	-0.0163031
-0.592016	0.0135459
-0.652039	-0.0197313
-0.602042	0.0138696
-0.662061	-0.0200384
-0.612042	0.0150981
-0.671995	-0.0207107
-0.622018	0.0162353
-0.682021	-0.0220554
-0.632048	0.0179701
-0.692005	-0.0163363
-0.642016	0.0205184
-0.701996	-0.0198641
-0.651981	0.0154551
-0.712095	-0.019723
-0.662022	0.019265
-0.722087	-0.0234416
-0.672003	0.0122178
-0.73209	-0.0265959
-0.681998	0.0143428
-0.742054	-0.0181791
-0.691997	0.0178456
-0.752073	-0.0154814
-0.70208	0.0180448
-0.762045	-0.0241057
-0.71208	0.0170488
-0.772071	-0.0208104
-0.722083	0.0143843
-0.782082	-0.0214495
-0.732097	0.0162021
-0.79207	-0.0213665
-0.742081	0.0140771
-0.80208	-0.0205447
-0.75205	0.0160942
-0.812076	-0.0256247
-0.762064	0.0158037
-0.822037	-0.0251599
-0.772075	0.0132886
-0.832055	-0.0174652
-0.782063	0.0141685
-0.84202	-0.023782
-0.792043	0.0144922
-0.852027	-0.0232424
-0.802042	0.0131807
-0.862072	-0.0200716
-0.812041	0.0131724
-0.872086	-0.02682
-0.822098	0.0101012
-0.88207	-0.0256994
-0.83212	0.0121099
-0.892073	-0.0163778
-0.842096	0.014127
-0.902054	-0.0213831
-0.852134	0.0162602
-0.912064	-0.0202127
-0.86206	0.0164345
-0.922029	-0.0212752
-0.872098	0.0161274
-0.932074	-0.0247614
-0.882059	0.0147329
-0.942043	-0.0240974
-0.892092	0.0150898
-0.952034	-0.0229021
-0.90205	0.0103419
-0.962057	-0.0236492
-0.912121	0.0142349
-0.972006	-0.0224207
-0.922037	0.0138198
-0.982055	-0.0224373
-0.932051	0.0104913
-0.992069	-0.0266042
-0.94207	0.0114791
-1.00212	-0.0260646
-0.952065	0.0117281
-1.01203	-0.0249441
-0.962091	0.0109395
-1.02207	-0.0189344
-0.972056	0.00875645
-1.03205	-0.0275422
-0.982063	0.0112466
-1.04208	-0.0263303
-0.992069	0.00774378
-1.05208	-0.0287125
-1.00202	0.00732044
-1.06204	-0.0305138
-1.01205	0.00996004
-1.0721	-0.0302233
-1.02208	0.00776868
-1.08205	-0.0322569
-1.03209	0.00842443
-1.09209	-0.0301817
-1.04206	0.00779358
-1.10208	-0.0336929
-1.05201	0.00767737
-1.11203	-0.0398603
-1.06206	0.00390889
-1.12215	-0.0409975
-1.07202	0.00301242

File: CoPc(OMe)8_CNT_VFSWV_scans_65_64_C02.txt
Ewe/V	<I>/mA
-0.122057	0.000679951
-0.0720759	0.0118465
-0.132086	0.00118646
-0.0820903	0.0117919
-0.142051	0.00240987
-0.0920208	0.0112075
-0.152031	0.0028852
-0.102119	0.00745156
-0.16208	0.00167738
-0.112107	0.00867497
-0.172083	-0.000426572
-0.122114	0.00663336
-0.182063	-0.00186038
-0.13206	0.00663336
-0.192067	-0.00264741
-0.142086	0.00727234
-0.20205	-0.00238247
-0.152073	0.00642296
-0.212042	-0.00136166
-0.16205	0.00828535
-0.222053	0.00230857
-0.172018	0.0101711
-0.232063	-0.00287339
-0.182052	0.00904121
-0.242074	-0.00272534
-0.19207	0.00732688
-0.252024	-0.00598257
-0.20202	0.00572944
-0.26205	-0.00574879
-0.212057	0.00831652
-0.272064	-0.00147855
-0.22203	0.00808275
-0.282151	-0.00373835
-0.232018	0.00439693
-0.29215	-0.00622413
-0.242086	0.00573723
-0.302134	0.000578649
-0.252096	0.0117218
-0.312141	0.000360462
-0.262061	0.01134
-0.322148	0.000594234
-0.272018	0.0109815
-0.332121	0.002067
-0.282113	0.0115036
-0.342143	0.0003215
-0.292192	0.0106153
-0.352111	0.00265143
-0.302115	0.0131322
-0.362168	0.00123321
-0.312103	0.0144258
-0.372125	0.00129555
-0.322114	0.0131712
-0.382132	0.00134231
-0.332079	0.0152362
-0.392124	0.00029033
-0.342135	0.0156102
-0.402115	0.00224623
-0.352127	0.0153375
-0.412126	0.000181236
-0.362118	0.0116595
-0.422117	0.00161504
-0.372114	0.0182908
-0.43209	0.00717103
-0.382079	0.0163739
-0.442043	0.0047398
-0.392089	0.0252105
-0.452062	0.00810612
-0.402073	0.0150336
-0.462099	0.00470863
-0.412076	0.0172544
-0.472102	0.00267481
-0.422068	0.0189765
-0.48209	0.00444369
-0.432136	0.0161791
-0.492024	0.000220198
-0.442085	0.0144492
-0.502046	0.00334496
-0.452104	0.0190233
-0.512038	0.00476318
-0.462107	0.0181194
-0.52206	-0.00372276
-0.472075	0.0163895
-0.532052	-0.000823985
-0.482094	0.0119478
-0.542081	-0.000520081
-0.492116	0.0162882
-0.552039	-0.00253832
-0.502092	0.0153375
-0.562095	-0.00181362
-0.512065	0.0167245
-0.572052	-0.00354354
-0.52203	0.0181661
-0.582021	-0.00745533
-0.532055	0.012953
-0.592009	-0.00965279
-0.54207	0.0153375
-0.601993	-0.00486046
-0.552107	0.0147764
-0.611992	-0.00521891
-0.562061	0.0183843
-0.622033	-0.00585009
-0.572056	0.0142777
-0.632067	-0.0111645
-0.582029	0.0197558
-0.642016	-0.00811769
-0.592055	0.0203402
-0.651989	-0.00701116
-0.602039	0.0248676
-0.662107	-0.0115931
-0.612049	0.0171219
-0.672048	-0.00793846
-0.622056	0.0232
-0.681987	-0.00846055
-0.632032	0.0201376
-0.692081	-0.0145308
-0.642039	0.0222416
-0.702031	-0.014414
-0.652039	0.0173635
-0.712125	-0.0154581
-0.662007	0.0206675
-0.722102	-0.0150296
-0.672018	0.0199272
-0.732082	-0.0118658
-0.682025	0.0198181
-0.742089	-0.0179205
-0.692012	0.0153531
-0.752103	-0.0185517
-0.702119	0.0167323
-0.762083	-0.0100658
-0.712125	0.0199818
-0.772083	-0.0135802
-0.722102	0.0165453
-0.78209	-0.0114996
-0.732151	0.01787
-0.792104	-0.0183258
-0.742123	0.0201688
-0.802084	-0.017905
-0.752077	0.018283
-0.812167	-0.0171413
-0.762061	0.0200051
-0.822094	-0.0165335
-0.772109	0.0167479
-0.832059	-0.0140867
-0.782097	0.0155557
-0.842108	-0.0202583
-0.79215	0.0181116
-0.852107	-0.017001
-0.802099	0.0175973
-0.862068	-0.0169231
-0.812064	0.0165453
-0.872098	-0.0177569
-0.82206	0.0184545
-0.88204	-0.019744
-0.832078	0.0183609
-0.892085	-0.0195725
-0.842077	0.0146907
-0.902096	-0.0170712
-0.852092	0.0149011
-0.912064	-0.016401
-0.862068	0.0179635
-0.922029	-0.020718
-0.872071	0.0187506
-0.932063	-0.0183725
-0.882078	0.019148
-0.94202	-0.0193466
-0.892089	0.0167947
-0.952042	-0.0176946
-0.902061	0.0162024
-0.962072	-0.0149906
-0.91203	0.014831
-0.972044	-0.0171725
-0.922063	0.016218
-0.982036	-0.01351
-0.932024	0.0186181
-0.99205	-0.0175621
-0.94207	0.0164518
-1.00204	-0.0206323
-0.952011	0.0187895
-1.01207	-0.0173751
-0.962114	0.0186882
-1.02206	-0.0225492
-0.97206	0.0223117
-1.03203	-0.0221362
-0.982032	0.0158206
-1.04206	-0.0236012
-0.992024	0.0177376
-1.05211	-0.0174998
-1.00204	0.0163895
-1.06206	-0.018318
-1.01203	0.0150959
-1.07206	-0.0245675
-1.02204	0.0132179
-1.08206	-0.0236947
-1.03201	0.0181973
-1.09203	-0.0243415
-1.04208	0.0131011
-1.102	-0.0237493
-1.05205	0.0112543
-1.11208	-0.0290247
-1.062	0.0115114
-1.12215	-0.0330067
-1.07204	0.0138881

File: CoPc(OMe)8_CNT_VFSWV_scans_66_65_C02.txt
Ewe/V	<I>/mA
-0.122045	0.0170986
-0.0720911	0.0289727
-0.132056	0.0198986
-0.0821055	0.0249148
-0.142086	0.0192323
-0.0921124	0.0277074
-0.152035	0.0178473
-0.102051	0.0257608
-0.162118	0.0177125
-0.112084	0.0333375
-0.172007	0.0188505
-0.122102	0.0238367
-0.18206	0.0175553
-0.132048	0.0210366
-0.192051	0.015429
-0.142032	0.0220848
-0.202081	0.0149798
-0.152051	0.0255961
-0.212061	0.0156686
-0.162027	0.0239715
-0.222034	0.0147103
-0.17208	0.0246902
-0.232052	0.0129059
-0.182067	0.029931
-0.242017	0.0120824
-0.192021	0.0237319
-0.252016	0.0107123
-0.202039	0.0241512
-0.26205	0.0086684
-0.212057	0.0186858
-0.272026	0.00688653
-0.222022	0.021411
-0.282147	0.0110866
-0.232021	0.0186708
-0.292135	0.010046
-0.242055	0.023672
-0.302157	0.00999357
-0.252005	0.0239041
-0.31208	0.012015
-0.262073	0.0207222
-0.322114	0.0124043
-0.272068	0.021426
-0.332079	0.0108096
-0.282121	0.0243009
-0.342097	0.0134525
-0.292116	0.0254239
-0.352066	0.0142835
-0.302108	0.024241
-0.362111	0.0133851
-0.312099	0.0240688
-0.372098	0.0124867
-0.32214	0.019674
-0.382094	0.00666193
-0.332109	0.0211939
-0.392078	0.014276
-0.34207	0.0250945
-0.402081	0.0134824
-0.352073	0.0250047
-0.412	0.00461802
-0.362099	0.0170162
-0.422072	0.00493996
-0.372087	0.0140814
-0.432056	0.00653465
-0.382105	0.0167018
-0.442097	0.00119654
-0.392085	0.0145156
-0.45205	0.00577848
-0.402111	0.0174804
-0.462114	0.0037795
-0.412088	0.0160504
-0.47206	0.00496991
-0.422094	0.0174729
-0.482056	0.0027014
-0.432067	0.0176152
-0.492032	0.00301584
-0.442078	0.0166943
-0.502065	0.00288108
-0.452081	0.0135423
-0.512076	0.0038918
-0.462076	0.0196666
-0.522068	0.00447577
-0.472091	0.0101583
-0.532094	-0.00860372
-0.482063	0.00887054
-0.542055	-0.00617799
-0.492024	0.0116407
-0.552065	-0.00549669
-0.502062	0.0102631
-0.562003	-0.00305598
-0.512103	0.0148076
-0.572079	-0.00818446
-0.522064	0.0104652
-0.582013	-0.0106327
-0.532086	0.0113936
-0.592043	-0.00835666
-0.542058	0.014568
-0.602035	-0.00589349
-0.552084	0.0113262
-0.612034	-0.0102059
-0.56203	0.0125241
-0.622022	-0.00976418
-0.572003	0.0113412
-0.632029	-0.0138295
-0.582059	0.0138643
-0.642032	-0.0113214
-0.592058	0.0130407
-0.652008	-0.00773525
-0.60205	0.0105476
-0.662042	-0.0160756
-0.612038	0.0104503
-0.671987	-0.0200586
-0.622041	0.010293
-0.682025	-0.0171687
-0.632059	0.0106
-0.691997	-0.0186511
-0.642001	0.016582
-0.702054	-0.0176179
-0.651993	0.0128835
-0.712129	-0.017251
-0.662053	0.0145531
-0.722083	-0.0167269
-0.672014	0.01486
-0.732059	-0.0182318
-0.681964	0.0139915
-0.742096	-0.0185837
-0.691978	0.0174205
-0.752092	-0.0179698
-0.702119	0.0142985
-0.762083	-0.0204554
-0.712133	0.0215458
-0.772094	-0.0134252
-0.722067	0.0185435
-0.782112	-0.01639
-0.732059	0.0151146
-0.792077	-0.0198415
-0.742112	0.0144707
-0.802046	-0.0191676
-0.752077	0.0147926
-0.812057	-0.0212265
-0.762076	0.0122771
-0.822041	-0.0214212
-0.772102	0.0144932
-0.832116	-0.0210543
-0.782067	0.0147926
-0.842112	-0.0189206
-0.792077	0.0123369
-0.852118	-0.0247678
-0.80208	0.0121049
-0.862041	-0.0218255
-0.812095	0.011431
-0.872056	-0.025479
-0.822113	0.00681915
-0.882047	-0.0250373
-0.832082	0.0124567
-0.892043	-0.0236972
-0.842119	0.00925986
-0.90208	-0.0190104
-0.852107	0.0112364
-0.912079	-0.0244309
-0.862087	0.00834647
-0.922102	-0.0230009
-0.872079	0.00947698
-0.932063	-0.0251122
-0.882063	0.0100535
-0.942047	-0.0196842
-0.892054	0.00751543
-0.952023	-0.0223945
-0.902061	0.00922991
-0.962022	-0.0261154
-0.912057	0.0107647
-0.972048	-0.0253293
-0.922079	0.0133851
-0.982032	-0.0265946
-0.932093	0.0049175
-0.99205	-0.0303904
-0.942073	0.0110866
-1.00201	-0.0283764
-0.952076	0.0079871
-1.012	-0.0278673
-0.962022	0.00613785
-1.02213	-0.0286535
-0.972029	0.00577848
-1.03201	-0.0258833
-0.982024	0.00621272
-1.04195	-0.0303455
-0.992039	0.00205004
-1.05202	-0.0299187
-1.00207	0.00269391
-1.06203	-0.0337894
-1.01201	0.00158586
-1.07204	-0.0304353
-1.02203	0.00619775
-1.08204	-0.029477
-1.03206	0.00678921
-1.09202	-0.0322921
-1.04206	0.00443085
-1.10203	-0.0347702
-1.05208	0.00634748
-1.11202	-0.0356012
-1.06203	0.00570361
-1.12206	-0.0370387
-1.072	0.00575602