Folder: ElectrochemLabUtils/VFSWV_data_prep/Example_data/CoPc_VFSWV_txt_data (part 7)

File: CoPc_CNT_VFSWV_scans_37_36_C02.txt
Ewe/V	<I>/mA
-0.122043	0.015396
-0.0720205	0.0442629
-0.132062	-0.00117464
-0.0819243	0.0432265
-0.142145	-0.00439291
-0.0918816	0.0410992
-0.152049	-0.00155647
-0.101949	0.0379355
-0.162078	-0.00608387
-0.111995	0.03679
-0.172112	-0.00908395
-0.12202	0.0444266
-0.182012	-0.0028656
-0.13202	0.0418629
-0.192057	-0.00537476
-0.142023	0.0388628
-0.20203	-0.00870212
-0.152117	0.041972
-0.212056	-0.00837484
-0.162017	0.0358082
-0.222043	-0.0117567
-0.171994	0.0338445
-0.23202	-0.0175387
-0.182062	0.0321535
-0.242004	-0.0186297
-0.192099	0.0375537
-0.252026	-0.0195024
-0.202022	0.03799
-0.262044	-0.0267572
-0.212017	0.0332445
-0.272055	-0.0201024
-0.22194	0.0379355
-0.282077	-0.0264299
-0.232046	0.0358082
-0.292046	-0.0269753
-0.242072	0.0339536
-0.302007	-0.0289936
-0.252033	0.0347172
-0.312025	-0.0354301
-0.262078	0.0337899
-0.322001	-0.0351028
-0.272047	0.0374446
-0.332008	-0.0314482
-0.282	0.034499
-0.342015	-0.0401757
-0.292053	0.0322081
-0.352071	-0.0332482
-0.301976	0.0450266
-0.361941	-0.0442667
-0.312067	0.0426811
-0.37202	-0.0479214
-0.322047	0.0403356
-0.381997	-0.0461213
-0.332065	0.0445357
-0.391954	-0.0531579
-0.341931	0.0455175
-0.402022	-0.0666855
-0.351938	0.0402265
-0.412029	-0.0738311
-0.361979	0.052445
-0.42186	-0.0901407
-0.371921	0.0503176
-0.431981	-0.107214
-0.382008	0.0534268
-0.441988	-0.138524
-0.391958	0.0545723
-0.451911	-0.192143
-0.402014	0.0716455
-0.461975	-0.245272
-0.41199	0.0848458
-0.471921	-0.328838
-0.421959	0.107592
-0.481943	-0.433186
-0.432016	0.158593
-0.491889	-0.549917
-0.441923	0.217068
-0.501922	-0.692502
-0.451961	0.298397
-0.511979	-0.844634
-0.461929	0.404218
-0.522024	-0.996274
-0.471982	0.533167
-0.532015	-1.14131
-0.481996	0.67488
-0.54203	-1.26208
-0.491984	0.804702
-0.552037	-1.35219
-0.501896	0.91985
-0.56199	-1.41694
-0.511899	1.00265
-0.572047	-1.43178
-0.521898	1.06211
-0.581977	-1.40696
-0.531989	1.07885
-0.592011	-1.33588
-0.542068	1.0584
-0.602056	-1.23688
-0.552064	1.01509
-0.612059	-1.09937
-0.562059	0.945269
-0.621997	-0.964255
-0.57202	0.851121
-0.632031	-0.82336
-0.582034	0.755009
-0.641992	-0.706084
-0.592018	0.64897
-0.651957	-0.608391
-0.602033	0.543858
-0.66194	-0.530934
-0.611983	0.459747
-0.671959	-0.476606
-0.621997	0.381199
-0.681985	-0.43875
-0.632034	0.310616
-0.692053	-0.414477
-0.642041	0.263923
-0.70206	-0.386003
-0.652029	0.224322
-0.712024	-0.374548
-0.661998	0.198903
-0.72194	-0.366748
-0.671974	0.176212
-0.731996	-0.362221
-0.682084	0.154175
-0.742033	-0.351366
-0.692064	0.149429
-0.751945	-0.364239
-0.701956	0.149429
-0.761956	-0.356111
-0.71199	0.140102
-0.772008	-0.361403
-0.72194	0.134974
-0.781912	-0.356057
-0.731946	0.12772
-0.791957	-0.363639
-0.741934	0.129302
-0.801941	-0.35933
-0.751914	0.129247
-0.812047	-0.348475
-0.761925	0.124011
-0.821947	-0.352184
-0.771928	0.123683
-0.832027	-0.350657
-0.781988	0.11321
-0.841938	-0.341111
-0.791965	0.110483
-0.852002	-0.338329
-0.801926	0.109719
-0.862001	-0.327256
-0.811944	0.105137
-0.871905	-0.31962
-0.821997	0.0983189
-0.881996	-0.309747
-0.831935	0.0968462
-0.891945	-0.302383
-0.841965	0.0880096
-0.902006	-0.286891
-0.85201	0.0849549
-0.911967	-0.282909
-0.861956	0.0773184
-0.921943	-0.272382
-0.871993	0.0721364
-0.93203	-0.259018
-0.881977	0.0664635
-0.942041	-0.252745
-0.891995	0.0664635
-0.952082	-0.247672
-0.901949	0.0596997
-0.962074	-0.241836
-0.911921	0.0551178
-0.971997	-0.231854
-0.921943	0.0616634
-0.982095	-0.23289
-0.932061	0.0567542
-0.992022	-0.229835
-0.941991	0.0544087
-1.00202	-0.231854
-0.952055	0.0577906
-1.01204	-0.230054
-0.961963	0.0563724
-1.02199	-0.230763
-0.972019	0.0558269
-1.03201	-0.228308
-0.982042	0.061718
-1.04205	-0.235836
-0.99201	0.0606816
-1.05202	-0.235563
-1.00198	0.057736
-1.06199	-0.235945
-1.01195	0.0588815
-1.072	-0.242054
-1.02204	0.0658635
-1.082	-0.252145
-1.03218	0.0566451
-1.09196	-0.257109
-1.04195	0.0679908
-1.10196	-0.267855
-1.05206	0.0727364
-1.11196	-0.277509
-1.06199	0.0734455
-1.12199	-0.274946
-1.072	0.0741547

File: CoPc_CNT_VFSWV_scans_38_37_C02.txt
Ewe/V	<I>/mA
-0.122511	0.00306294
-0.0723509	0.033899
-0.132426	-0.014975
-0.0823235	0.0325354
-0.142456	-0.0105567
-0.0923493	0.0254443
-0.152417	-0.0168842
-0.102356	0.0256624
-0.16242	-0.0141023
-0.112363	0.0280625
-0.172454	-0.0159023
-0.122454	0.0253897
-0.182442	-0.0194479
-0.13248	0.0195532
-0.192464	-0.0228298
-0.142498	0.0182986
-0.20244	-0.0244662
-0.152421	0.019935
-0.212405	-0.0211934
-0.162409	0.0251715
-0.222416	-0.0282845
-0.172442	0.0194986
-0.232438	-0.0354847
-0.182465	0.0232078
-0.24246	-0.034121
-0.192464	0.0202623
-0.252436	-0.0316118
-0.202421	0.0237533
-0.262409	-0.0363029
-0.212455	0.0264806
-0.272419	-0.0346665
-0.22245	0.0199896
-0.282373	-0.0335755
-0.232426	0.0188441
-0.292364	-0.0384847
-0.242429	0.0232078
-0.302406	-0.037612
-0.252421	0.0238078
-0.312355	-0.0414848
-0.262382	0.0151349
-0.322381	-0.043994
-0.272427	0.0302444
-0.332342	-0.0474304
-0.282377	0.0223351
-0.342399	-0.0506487
-0.292425	0.0249533
-0.352318	-0.0518487
-0.302406	0.0220078
-0.362367	-0.062049
-0.312412	0.0226078
-0.372358	-0.0589398
-0.322423	0.0308444
-0.382373	-0.0601944
-0.332369	0.0287716
-0.39236	-0.0633036
-0.342338	0.0331354
-0.402421	-0.0673946
-0.35236	0.0290443
-0.412363	-0.0851769
-0.362412	0.0297535
-0.422343	-0.0867042
-0.372381	0.0331899
-0.432361	-0.110923
-0.382361	0.0374446
-0.442307	-0.139669
-0.392345	0.0418629
-0.452341	-0.180798
-0.402379	0.0536996
-0.462409	-0.236981
-0.412382	0.0657544
-0.472354	-0.303092
-0.422377	0.0793366
-0.482373	-0.397349
-0.432342	0.121229
-0.492326	-0.513425
-0.442422	0.177357
-0.502333	-0.63501
-0.45231	0.251487
-0.51237	-0.775741
-0.462317	0.351962
-0.522312	-0.915654
-0.472362	0.47862
-0.532472	-1.04957
-0.482342	0.60026
-0.542402	-1.15779
-0.492345	0.727572
-0.552459	-1.24894
-0.502371	0.83083
-0.562427	-1.30768
-0.512309	0.915759
-0.572415	-1.32601
-0.522285	0.968124
-0.582437	-1.29994
-0.532407	0.982034
-0.592425	-1.22886
-0.542418	0.964415
-0.602375	-1.13428
-0.55244	0.930378
-0.612405	-1.01427
-0.562458	0.860885
-0.622381	-0.875671
-0.572457	0.777974
-0.632426	-0.758231
-0.582392	0.68148
-0.642387	-0.645865
-0.592406	0.581441
-0.652398	-0.561426
-0.602367	0.490729
-0.662385	-0.500443
-0.612431	0.404218
-0.672381	-0.446005
-0.622392	0.335162
-0.682372	-0.412077
-0.632395	0.27996
-0.692436	-0.38453
-0.642398	0.232613
-0.702363	-0.373021
-0.652367	0.199558
-0.712443	-0.35873
-0.66234	0.175557
-0.72235	-0.349402
-0.672369	0.157721
-0.732361	-0.350057
-0.682342	0.145611
-0.742341	-0.341875
-0.692387	0.13252
-0.752333	-0.347493
-0.702367	0.133065
-0.762378	-0.339966
-0.71237	0.120901
-0.772346	-0.346511
-0.722381	0.112283
-0.782326	-0.346838
-0.732346	0.113974
-0.79231	-0.338656
-0.742345	0.115119
-0.802355	-0.348257
-0.752405	0.112228
-0.812317	-0.342693
-0.762347	0.0990826
-0.822358	-0.347002
-0.7724	0.0969007
-0.832319	-0.34122
-0.782334	0.101537
-0.842326	-0.337402
-0.792295	0.103228
-0.852374	-0.332438
-0.802329	0.0951007
-0.862362	-0.322783
-0.812313	0.0868095
-0.872365	-0.312583
-0.822377	0.0910642
-0.882307	-0.295128
-0.832338	0.0809185
-0.892383	-0.295564
-0.842349	0.0789548
-0.90229	-0.283619
-0.852367	0.0776457
-0.91232	-0.2732
-0.862351	0.0660272
-0.922308	-0.261582
-0.872384	0.062918
-0.932468	-0.2558
-0.882376	0.0562633
-0.942387	-0.249527
-0.892314	0.0568087
-0.952382	-0.236381
-0.90234	0.0481903
-0.962393	-0.226781
-0.912324	0.0503722
-0.972415	-0.230544
-0.922316	0.0537541
-0.982422	-0.230926
-0.932426	0.0514086
-0.99239	-0.225744
-0.942452	0.0481358
-1.0024	-0.21838
-0.952409	0.0442629
-1.0124	-0.223072
-0.962461	0.0497176
-1.02238	-0.222908
-0.972388	0.048954
-1.03243	-0.226835
-0.982399	0.0552269
-1.04236	-0.226126
-0.992444	0.0535359
-1.05236	-0.231854
-1.00244	0.0506449
-1.06243	-0.239272
-1.01242	0.0566996
-1.07241	-0.239763
-1.02238	0.0562633
-1.08238	-0.242545
-1.03236	0.0598088
-1.09243	-0.247727
-1.04245	0.0593179
-1.1024	-0.253727
-1.05239	0.0587179
-1.1124	-0.264364
-1.06243	0.0660272
-1.12242	-0.274018
-1.07238	0.0650453

File: CoPc_CNT_VFSWV_scans_39_38_C02.txt
Ewe/V	<I>/mA
-0.122504	0.00669031
-0.0724273	0.0401037
-0.132465	0.00822106
-0.0823388	0.0420129
-0.142491	0.00497552
-0.0923684	0.0387673
-0.152467	0.000345851
-0.102318	0.0425379
-0.162436	0.00297092
-0.112363	0.0379082
-0.172435	0.00402095
-0.122416	0.0338513
-0.182453	0.000393579
-0.132457	0.0391969
-0.192403	-0.00480883
-0.142426	0.0353786
-0.202432	-0.000751906
-0.152429	0.0368582
-0.212432	-0.00161102
-0.162428	0.031274
-0.222465	-0.00662252
-0.1724	0.0340422
-0.232403	-0.010059
-0.182488	0.0307012
-0.242384	-0.00590659
-0.192479	0.0380037
-0.252436	-0.0113954
-0.202421	0.0383855
-0.262424	-0.00791119
-0.212428	0.033899
-0.272446	-0.0122545
-0.222477	0.0370014
-0.282461	-0.00891349
-0.232487	0.0379082
-0.292395	-0.00786346
-0.242452	0.0391014
-0.302406	-0.00891349
-0.252436	0.0381946
-0.312413	-0.0137341
-0.262428	0.0378605
-0.322423	-0.0196047
-0.272435	0.0387196
-0.332415	-0.0213706
-0.282396	0.0376696
-0.342429	-0.0170751
-0.292433	0.0409151
-0.352425	-0.0181251
-0.30239	0.0400083
-0.362424	-0.019557
-0.312412	0.040581
-0.372393	-0.0239003
-0.322404	0.0396265
-0.3824	-0.0263821
-0.332377	0.0420129
-0.39238	-0.0322528
-0.342403	0.0388151
-0.402398	-0.0377893
-0.352413	0.0420129
-0.412374	-0.0414166
-0.362443	0.0506517
-0.422335	-0.0473827
-0.372408	0.0484562
-0.432361	-0.0620831
-0.382373	0.0485517
-0.442338	-0.0773562
-0.39236	0.0529427
-0.452348	-0.0930112
-0.402325	0.0556632
-0.46237	-0.125085
-0.412363	0.0665931
-0.472331	-0.172384
-0.4224	0.0748501
-0.482353	-0.229944
-0.432373	0.0910301
-0.49233	-0.295428
-0.442307	0.116851
-0.50231	-0.379764
-0.45239	0.151979
-0.512374	-0.475126
-0.462378	0.210924
-0.522301	-0.569485
-0.472328	0.281706
-0.532476	-0.664036
-0.482334	0.362128
-0.542467	-0.749565
-0.492421	0.449185
-0.552466	-0.803833
-0.502352	0.533522
-0.562466	-0.845929
-0.512366	0.595903
-0.572404	-0.859961
-0.522347	0.641149
-0.582395	-0.830035
-0.532411	0.661577
-0.592448	-0.77825
-0.542467	0.650695
-0.602436	-0.703746
-0.552447	0.627738
-0.612431	-0.623944
-0.56245	0.582825
-0.622423	-0.543951
-0.57243	0.522639
-0.632422	-0.462907
-0.582411	0.458254
-0.64241	-0.40549
-0.592448	0.391004
-0.652356	-0.354993
-0.602478	0.32237
-0.66237	-0.321917
-0.612374	0.273974
-0.672438	-0.304258
-0.622415	0.231448
-0.682403	-0.282446
-0.632449	0.197942
-0.69241	-0.271421
-0.642395	0.165343
-0.702413	-0.271086
-0.652375	0.152552
-0.712381	-0.263163
-0.662351	0.136134
-0.722304	-0.261254
-0.672442	0.123867
-0.732391	-0.254811
-0.682403	0.110742
-0.742364	-0.253856
-0.692398	0.112222
-0.752401	-0.259966
-0.702348	0.10974
-0.762366	-0.255622
-0.712362	0.098953
-0.77235	-0.258104
-0.722373	0.0981417
-0.782315	-0.253093
-0.732384	0.105301
-0.792383	-0.254954
-0.742337	0.0979507
-0.80234	-0.256863
-0.752409	0.0907437
-0.812374	-0.2603
-0.762393	0.0969484
-0.822407	-0.257054
-0.772385	0.0886914
-0.832384	-0.247938
-0.782334	0.0846345
-0.842371	-0.249704
-0.792387	0.0858754
-0.852397	-0.24159
-0.802329	0.08683
-0.862324	-0.242831
-0.812347	0.0884528
-0.872388	-0.234622
-0.822388	0.0770934
-0.882418	-0.22856
-0.83238	0.0738478
-0.892326	-0.218585
-0.842394	0.0669272
-0.902363	-0.207989
-0.852397	0.0611998
-0.912343	-0.20441
-0.862366	0.0587656
-0.922289	-0.194673
-0.872381	0.0580019
-0.932437	-0.186034
-0.882384	0.0559496
-0.942516	-0.174007
-0.892364	0.0494108
-0.952386	-0.175343
-0.902394	0.0466903
-0.962469	-0.172336
-0.912351	0.042872
-0.972415	-0.170904
-0.922361	0.0447811
-0.982445	-0.165511
-0.932456	0.0420606
-0.992429	-0.16279
-0.942463	0.0458789
-1.0024	-0.164795
-0.952439	0.0461175
-1.01243	-0.167802
-0.962446	0.0461653
-1.02234	-0.167563
-0.972468	0.0412492
-1.0324	-0.175868
-0.982426	0.0455925
-1.04236	-0.171191
-0.992448	0.0485517
-1.0524	-0.172479
-1.00239	0.0498881
-1.06241	-0.174197
-1.01239	0.0519404
-1.07238	-0.184316
-1.02241	0.0502699
-1.08237	-0.186559
-1.03241	0.0537541
-1.09242	-0.183457
-1.04243	0.0564269
-1.10242	-0.186177
-1.0524	0.0550905
-1.11238	-0.19873
-1.0624	0.0588611
-1.12239	-0.212905
-1.07237	0.0559973

File: CoPc_CNT_VFSWV_scans_40_39_C02.txt
Ewe/V	<I>/mA
-0.122477	0.0162742
-0.0723929	0.0527518
-0.132476	0.0161917
-0.0823578	0.0404378
-0.142479	0.00702785
-0.0924105	0.0430152
-0.152448	0.0144735
-0.102337	0.039006
-0.162474	0.00416414
-0.112375	0.0404378
-0.172473	0.00822106
-0.122469	0.0426333
-0.182472	0.00502325
-0.132461	0.0345195
-0.192441	0.00884153
-0.142464	0.0408674
-0.202455	0.00168225
-0.152436	0.0386242
-0.212397	0.00378231
-0.162416	0.0417742
-0.22245	0.00244591
-0.172439	0.0404378
-0.232434	-0.00060872
-0.182438	0.0418697
-0.242445	0.00306638
-0.192387	0.0395787
-0.252387	0.00134815
-0.202429	0.0353309
-0.262424	-0.00137238
-0.212458	0.0363332
-0.272396	-0.00151556
-0.222454	0.0379082
-0.282411	-0.00304288
-0.232449	0.0399128
-0.29246	-0.0109658
-0.242403	0.0389583
-0.302421	-0.00762482
-0.252436	0.0377173
-0.312371	-0.0102022
-0.262443	0.0372877
-0.322408	-0.0128272
-0.272458	0.0365241
-0.332403	-0.0124454
-0.282415	0.0407719
-0.34241	-0.0119681
-0.29246	0.0409151
-0.352406	-0.0120158
-0.302421	0.0373832
-0.362397	-0.0213229
-0.312397	0.0421561
-0.372412	-0.022182
-0.322404	0.0428243
-0.382392	-0.0291027
-0.332388	0.0466903
-0.392372	-0.0228025
-0.342376	0.0453061
-0.402375	-0.0297231
-0.352398	0.0427765
-0.412374	-0.0354506
-0.362359	0.0442561
-0.422373	-0.0484327
-0.372373	0.0487903
-0.432392	-0.0482418
-0.382361	0.0462607
-0.44236	-0.0618445
-0.392406	0.0466425
-0.452367	-0.0785017
-0.402352	0.0563314
-0.462378	-0.102271
-0.412412	0.0586224
-0.472347	-0.142267
-0.422373	0.0669749
-0.482373	-0.183839
-0.432403	0.0779048
-0.492341	-0.249561
-0.442368	0.0969962
-0.502344	-0.322395
-0.452409	0.127065
-0.512374	-0.396183
-0.462378	0.169591
-0.522293	-0.481426
-0.472377	0.232116
-0.532418	-0.566288
-0.482315	0.301227
-0.54246	-0.634014
-0.492337	0.373106
-0.55244	-0.695489
-0.502375	0.442074
-0.562397	-0.722503
-0.512332	0.501448
-0.572469	-0.724555
-0.522377	0.54617
-0.582392	-0.702648
-0.532434	0.568363
-0.592398	-0.661124
-0.542437	0.563638
-0.602432	-0.6028
-0.552443	0.532901
-0.612389	-0.532496
-0.56245	0.500923
-0.622453	-0.456416
-0.572434	0.449137
-0.632426	-0.395658
-0.582388	0.392102
-0.642356	-0.346354
-0.592452	0.333539
-0.65239	-0.316333
-0.602417	0.282278
-0.662397	-0.282589
-0.612393	0.233213
-0.6724	-0.266743
-0.6224	0.210161
-0.682414	-0.251231
-0.632395	0.171835
-0.692383	-0.242831
-0.642391	0.145966
-0.702363	-0.239251
-0.652443	0.134415
-0.712374	-0.236006
-0.662374	0.126063
-0.7224	-0.235433
-0.672438	0.115706
-0.732327	-0.237247
-0.682384	0.106494
-0.742368	-0.229849
-0.692375	0.112126
-0.752344	-0.226985
-0.702398	0.101053
-0.762359	-0.236483
-0.712378	0.0985712
-0.772343	-0.237104
-0.722335	0.0938938
-0.782346	-0.23381
-0.732376	0.094562
-0.792372	-0.236483
-0.742345	0.0980939
-0.802321	-0.238965
-0.752375	0.0915551
-0.812332	-0.237008
-0.762347	0.0930347
-0.822373	-0.237486
-0.772392	0.0904574
-0.832338	-0.234813
-0.782426	0.0864004
-0.842349	-0.23171
-0.792391	0.0833935
-0.852355	-0.219826
-0.802355	0.0849686
-0.862324	-0.218108
-0.812381	0.0799093
-0.872358	-0.205364
-0.822346	0.0797184
-0.882368	-0.207512
-0.832353	0.0695523
-0.892417	-0.197823
-0.842352	0.0708409
-0.902325	-0.187896
-0.852382	0.0701727
-0.912301	-0.176298
-0.862374	0.0588611
-0.922358	-0.178493
-0.872316	0.0583838
-0.932376	-0.165797
-0.882376	0.0536586
-0.942452	-0.164652
-0.892352	0.0490767
-0.952405	-0.162552
-0.902325	0.0463562
-0.962412	-0.152051
-0.912355	0.0498404
-0.97243	-0.14976
-0.922293	0.0454971
-0.982364	-0.154581
-0.932407	0.0404856
-0.992375	-0.143651
-0.942421	0.0475971
-1.00242	-0.148567
-0.952428	0.0490767
-1.01237	-0.147231
-0.962396	0.0422992
-1.02243	-0.150047
-0.972381	0.0495063
-1.03244	-0.152386
-0.982414	0.0566655
-1.04247	-0.148901
-0.992364	0.0523222
-1.05242	-0.15124
-1.00241	0.051654
-1.06238	-0.151765
-1.01238	0.0532291
-1.07241	-0.157445
-1.02237	0.0562837
-1.08241	-0.16069
-1.03239	0.0545178
-1.09239	-0.169234
-1.04242	0.0528473
-1.10238	-0.176441
-1.0524	0.0551382
-1.11237	-0.182741
-1.0624	0.0541837
-1.12239	-0.188086
-1.07239	0.0534677

File: CoPc_CNT_VFSWV_scans_41_40_C02.txt
Ewe/V	<I>/mA
-0.1225	0.0203216
-0.0723814	0.050954
-0.132438	0.0197289
-0.0824074	0.0439114
-0.142479	0.0161228
-0.092399	0.0445478
-0.152475	0.00844379
-0.102345	0.0426811
-0.16247	0.0146379
-0.11234	0.0448023
-0.172442	0.0118803
-0.122462	0.0414932
-0.182453	0.0126015
-0.132472	0.0384385
-0.192452	0.0103529
-0.142468	0.0423841
-0.202421	0.0139591
-0.152448	0.0400083
-0.212439	0.010056
-0.162462	0.045863
-0.222446	0.00695891
-0.172443	0.0430629
-0.232426	0.0092923
-0.182491	0.044972
-0.242399	0.00526189
-0.192376	0.0466266
-0.252406	0.00471036
-0.202459	0.0425114
-0.262435	0.00517704
-0.212455	0.0342809
-0.272416	-4.12804e-05
-0.222488	0.0389901
-0.282407	-0.000423109
-0.232426	0.0434872
-0.292406	-0.00381714
-0.242448	0.0419598
-0.302459	-0.00373229
-0.252383	0.0436993
-0.312428	-0.00271408
-0.262439	0.0410265
-0.322397	-0.00750815
-0.272454	0.0437417
-0.332396	-0.00576871
-0.282461	0.0431902
-0.342391	-0.0052596
-0.292403	0.0408144
-0.352406	-0.0101809
-0.302394	0.0381416
-0.362412	-0.0120901
-0.312401	0.0428084
-0.372381	-0.0125992
-0.322419	0.0403053
-0.382422	-0.0182418
-0.332453	0.0377173
-0.392437	-0.0209146
-0.342399	0.04616
-0.402409	-0.0233328
-0.352417	0.0456933
-0.412454	-0.0219752
-0.362435	0.0459903
-0.42232	-0.0319876
-0.3724	0.0483661
-0.432403	-0.0388181
-0.382422	0.0536692
-0.442376	-0.0508245
-0.392441	0.0541359
-0.452413	-0.0696613
-0.402425	0.05753
-0.462401	-0.0849345
-0.412386	0.0581663
-0.472389	-0.119087
-0.422373	0.0634695
-0.482323	-0.159349
-0.432392	0.0795063
-0.492399	-0.214162
-0.442395	0.0893914
-0.502383	-0.274152
-0.452383	0.116289
-0.512389	-0.342117
-0.462386	0.155999
-0.522358	-0.422386
-0.472396	0.200164
-0.532457	-0.490309
-0.482369	0.258669
-0.542418	-0.555559
-0.492364	0.329307
-0.552455	-0.602948
-0.502363	0.394048
-0.562416	-0.624373
-0.512382	0.441734
-0.572442	-0.635828
-0.522408	0.482929
-0.582449	-0.611221
-0.532437	0.499008
-0.592444	-0.57079
-0.542421	0.505542
-0.602455	-0.515085
-0.552505	0.481063
-0.612446	-0.456793
-0.562416	0.446062
-0.622423	-0.393155
-0.572442	0.401939
-0.632441	-0.342711
-0.582464	0.351708
-0.642395	-0.312335
-0.592463	0.301179
-0.652401	-0.269358
-0.602402	0.25905
-0.662336	-0.248866
-0.612447	0.211873
-0.672427	-0.241569
-0.622434	0.185655
-0.682422	-0.231938
-0.632399	0.160963
-0.692379	-0.22269
-0.642395	0.14866
-0.702451	-0.215732
-0.652421	0.132877
-0.712424	-0.208859
-0.662401	0.126259
-0.722404	-0.211871
-0.672415	0.114465
-0.732437	-0.213823
-0.68238	0.114804
-0.742364	-0.208435
-0.69241	0.103901
-0.75242	-0.206101
-0.702394	0.109246
-0.762412	-0.20992
-0.712443	0.0999978
-0.772407	-0.209877
-0.722388	0.097325
-0.782353	-0.21132
-0.73243	0.0980462
-0.792368	-0.20695
-0.742356	0.0941006
-0.802432	-0.206653
-0.752375	0.0943552
-0.812374	-0.20538
-0.762351	0.10004
-0.822362	-0.213908
-0.772346	0.0902399
-0.832357	-0.208817
-0.782311	0.0942703
-0.842383	-0.199738
-0.792364	0.0937612
-0.852413	-0.197447
-0.802386	0.0860822
-0.862362	-0.195368
-0.812358	0.083367
-0.872358	-0.188962
-0.822373	0.0702576
-0.882353	-0.186331
-0.832368	0.0718273
-0.892341	-0.176446
-0.842398	0.0727607
-0.902325	-0.167961
-0.852344	0.0695788
-0.91237	-0.167919
-0.862419	0.0656756
-0.922274	-0.158882
-0.872388	0.0608391
-0.932445	-0.1571
-0.882349	0.0577421
-0.942471	-0.144288
-0.892341	0.0557905
-0.952443	-0.137924
-0.902367	0.049851
-0.962439	-0.130499
-0.912385	0.0590148
-0.972464	-0.12876
-0.922361	0.058633
-0.982452	-0.125451
-0.93241	0.0615604
-0.99241	-0.123754
-0.942452	0.0610088
-1.0024	-0.120996
-0.952466	0.0623665
-1.01242	-0.126851
-0.962454	0.0626634
-1.02242	-0.122354
-0.972495	0.0570209
-1.0324	-0.126426
-0.982452	0.0553663
-1.04246	-0.134699
-0.992505	0.0574875
-1.05237	-0.127063
-1.00249	0.0548996
-1.06239	-0.13593
-1.01245	0.0574875
-1.07242	-0.133893
-1.0224	0.0665241
-1.08241	-0.136821
-1.03245	0.0680939
-1.09244	-0.148106
-1.04244	0.0598209
-1.10245	-0.143354
-1.05242	0.0624937
-1.1124	-0.155955
-1.06238	0.0667363
-1.1224	-0.159815
-1.0724	0.074288

File: CoPc_CNT_VFSWV_scans_42_41_C02.txt
Ewe/V	<I>/mA
-0.122473	0.0147469
-0.0724273	0.0401356
-0.132495	0.0126439
-0.0824189	0.0372082
-0.142479	0.00992868
-0.0923952	0.0415356
-0.152456	0.00390428
-0.102356	0.0322444
-0.16247	-0.00127162
-0.112355	0.0373355
-0.172496	0.00534674
-0.122458	0.0328384
-0.18248	0.00725588
-0.132457	0.0344081
-0.192437	0.00488006
-0.142452	0.0310565
-0.202448	0.00207999
-0.152452	0.039287
-0.212439	0.00479521
-0.16247	0.0370385
-0.222439	0.00543159
-0.172473	0.0369536
-0.232434	0.00233454
-0.182423	0.038184
-0.242475	0.00140118
-0.192441	0.0323717
-0.252455	-0.00144132
-0.202406	0.0327111
-0.26242	-0.00453837
-0.21242	0.0295716
-0.272377	-0.00271408
-0.222465	0.0338142
-0.282457	-0.00161102
-0.232449	0.0334748
-0.292403	-0.00933244
-0.242437	0.0344081
-0.302421	-0.00687177
-0.252452	0.0330929
-0.31239	-0.00852636
-0.262424	0.0348748
-0.322469	-0.0117931
-0.2724	0.0394992
-0.33238	-0.0131931
-0.282453	0.0380991
-0.342403	-0.0121749
-0.29241	0.0303777
-0.352386	-0.0127265
-0.302417	0.0365718
-0.362439	-0.0191751
-0.312378	0.0381416
-0.372389	-0.0134053
-0.322419	0.0368688
-0.382403	-0.018666
-0.33238	0.0319475
-0.392464	-0.0230783
-0.342422	0.0403053
-0.402383	-0.024945
-0.35236	0.0431478
-0.412367	-0.0273632
-0.362432	0.0422992
-0.422366	-0.0314361
-0.372423	0.0416204
-0.432396	-0.0399636
-0.382377	0.0470085
-0.44236	-0.0488729
-0.39241	0.0421295
-0.45244	-0.06474
-0.402394	0.0467539
-0.462393	-0.0772979
-0.412424	0.04756
-0.472366	-0.10619
-0.422354	0.053542
-0.482334	-0.141106
-0.432346	0.0638513
-0.492345	-0.188665
-0.44241	0.0732698
-0.502337	-0.243818
-0.45239	0.0954582
-0.512317	-0.303255
-0.462359	0.120023
-0.522305	-0.361421
-0.472347	0.161812
-0.532426	-0.431295
-0.482354	0.214843
-0.542452	-0.483182
-0.492318	0.269614
-0.552493	-0.524631
-0.502382	0.323452
-0.562424	-0.551317
-0.512366	0.371647
-0.572434	-0.549747
-0.522347	0.410382
-0.58246	-0.528025
-0.532476	0.429643
-0.592418	-0.504267
-0.542448	0.423406
-0.602409	-0.452296
-0.552497	0.407115
-0.612439	-0.400664
-0.562462	0.378011
-0.622385	-0.353572
-0.572465	0.338895
-0.632433	-0.310383
-0.582418	0.295197
-0.642444	-0.278818
-0.592437	0.25362
-0.652371	-0.257521
-0.602478	0.212298
-0.662439	-0.237411
-0.612405	0.184212
-0.672442	-0.223368
-0.622377	0.15672
-0.682445	-0.221629
-0.63238	0.134235
-0.692417	-0.219805
-0.642406	0.120829
-0.702367	-0.211489
-0.652348	0.108313
-0.712381	-0.21378
-0.662404	0.0997856
-0.722365	-0.206738
-0.672411	0.0917248
-0.732376	-0.204744
-0.682395	0.0862944
-0.74231	-0.207714
-0.692421	0.0872277
-0.752401	-0.20818
-0.70239	0.0884581
-0.762343	-0.208435
-0.712458	0.079676
-0.772392	-0.206144
-0.722358	0.0860398
-0.782365	-0.206653
-0.732353	0.0812882
-0.792375	-0.203853
-0.742345	0.0754759
-0.80242	-0.206144
-0.752367	0.0812033
-0.812362	-0.201859
-0.762378	0.0840458
-0.822396	-0.206144
-0.772377	0.0819246
-0.832349	-0.203344
-0.782384	0.0739062
-0.842326	-0.198125
-0.792425	0.0741607
-0.852348	-0.194434
-0.802397	0.0734819
-0.862366	-0.191168
-0.812339	0.0657605
-0.872438	-0.188155
-0.822365	0.0602028
-0.882361	-0.178228
-0.832372	0.0641059
-0.892375	-0.171143
-0.84236	0.0608391
-0.902374	-0.161809
-0.852382	0.0530753
-0.912351	-0.160367
-0.862343	0.0523965
-0.922369	-0.154003
-0.872312	0.049851
-0.932456	-0.146451
-0.88238	0.0467115
-0.942398	-0.137372
-0.892394	0.0463721
-0.952455	-0.137245
-0.902344	0.0413235
-0.962442	-0.133512
-0.912404	0.0464569
-0.972438	-0.133554
-0.922384	0.0419174
-0.982448	-0.130542
-0.932452	0.0423417
-0.992417	-0.129651
-0.94249	0.0416629
-1.00241	-0.128548
-0.952397	0.0439538
-1.01244	-0.132111
-0.962442	0.0397537
-1.02245	-0.130542
-0.97243	0.0453963
-1.03242	-0.12842
-0.982448	0.0473903
-1.04243	-0.133045
-0.99244	0.0445478
-1.05238	-0.136906
-1.00236	0.0486631
-1.06242	-0.141063
-1.01247	0.046966
-1.07247	-0.140978
-1.0224	0.0447175
-1.08239	-0.142888
-1.03249	0.0482812
-1.09238	-0.148785
-1.0424	0.0474751
-1.10242	-0.155827
-1.05239	0.0498934
-1.11239	-0.155403
-1.06242	0.0528632
-1.12237	-0.161894
-1.07243	0.053245