Folder: ElectrochemLabUtils/VFSWV_data_prep/Example_data/CoPc(OMe)8_VFSWV_txt_data (part 8)

File: CoPc(OMe)8_CNT_VFSWV_scans_43_42_C02.txt
Ewe/V	<I>/mA
-0.122061	-0.00313833
-0.0720758	0.0258382
-0.132079	-0.0156538
-0.0821285	0.0288928
-0.142047	-0.0169266
-0.0921201	0.0212987
-0.152081	-0.0204903
-0.102066	0.0159531
-0.162054	-0.0221025
-0.112077	0.0217229
-0.17203	-0.0277026
-0.122053	0.0173531
-0.182071	-0.026939
-0.132064	0.0195592
-0.192017	-0.0281269
-0.142055	0.0145106
-0.20205	-0.0276602
-0.152066	0.0214684
-0.212046	-0.0315209
-0.162046	0.0165895
-0.221999	-0.0265147
-0.172022	0.0145955
-0.232048	-0.0418727
-0.18209	0.0153591
-0.24204	-0.045097
-0.19204	0.0190077
-0.252024	-0.0427636
-0.20207	0.0061104
-0.262053	-0.0501032
-0.212061	0.011159
-0.272049	-0.0471759
-0.222041	0.01485
-0.282109	-0.0447152
-0.232067	0.010056
-0.292177	-0.0501457
-0.242059	0.0125591
-0.302092	-0.0491274
-0.251989	0.0218078
-0.312076	-0.0496366
-0.262034	0.0133227
-0.322125	-0.0506123
-0.272007	0.0145106
-0.332136	-0.0523094
-0.282155	0.0112863
-0.342089	-0.0534973
-0.292097	0.0219351
-0.352146	-0.0562973
-0.3021	0.0142561
-0.362156	-0.0607944
-0.312099	0.0158258
-0.372137	-0.0578247
-0.322121	0.0144682
-0.382101	-0.0565519
-0.332113	0.0160379
-0.392127	-0.0579944
-0.342169	0.0199411
-0.402119	-0.0638066
-0.352142	0.0189653
-0.412091	-0.0552791
-0.362092	0.0181592
-0.422125	-0.0583762
-0.37211	0.0226987
-0.43209	-0.0554064
-0.382067	0.021129
-0.442036	-0.0561701
-0.392131	0.0186683
-0.452107	-0.0575701
-0.402081	0.0226563
-0.462114	-0.0698735
-0.412076	0.00984383
-0.472072	-0.069025
-0.422106	0.0219775
-0.482117	-0.0702553
-0.432082	0.0221472
-0.492097	-0.0733948
-0.442051	0.0246079
-0.502046	-0.0787404
-0.452035	0.0243533
-0.512023	-0.0798859
-0.462095	0.0251594
-0.522091	-0.0909164
-0.472064	0.026517
-0.532017	-0.087777
-0.482086	0.0280443
-0.542058	-0.0918074
-0.492043	0.0245654
-0.552092	-0.102117
-0.502001	0.0267291
-0.562023	-0.109584
-0.512065	0.0352991
-0.572022	-0.131008
-0.522041	0.0344506
-0.58199	-0.145094
-0.532017	0.0360203
-0.592051	-0.161767
-0.542039	0.0514207
-0.601962	-0.191337
-0.552035	0.0587603
-0.612042	-0.217344
-0.562003	0.0656332
-0.622033	-0.249206
-0.572037	0.0906218
-0.632017	-0.275637
-0.582055	0.111495
-0.642039	-0.298843
-0.591948	0.131477
-0.652019	-0.31925
-0.602062	0.151502
-0.662049	-0.328456
-0.611992	0.172672
-0.672045	-0.328032
-0.622014	0.18523
-0.682029	-0.321244
-0.632002	0.193885
-0.69199	-0.314583
-0.642032	0.19397
-0.702027	-0.298928
-0.651993	0.195073
-0.712045	-0.281619
-0.662007	0.180606
-0.722087	-0.266685
-0.672041	0.167581
-0.732109	-0.253066
-0.682029	0.156678
-0.742085	-0.241739
-0.692016	0.135253
-0.752115	-0.233635
-0.702092	0.122823
-0.762091	-0.226084
-0.712064	0.113277
-0.772041	-0.219465
-0.722087	0.0971553
-0.782074	-0.21692
-0.73204	0.0823064
-0.792054	-0.210938
-0.742123	0.0820518
-0.802092	-0.210047
-0.752103	0.0707242
-0.812099	-0.206186
-0.762118	0.0654635
-0.82209	-0.20695
-0.772121	0.0618149
-0.832067	-0.204998
-0.782025	0.0607967
-0.842031	-0.20275
-0.792058	0.0495964
-0.852118	-0.205635
-0.802111	0.0567663
-0.862083	-0.203386
-0.812114	0.0492146
-0.87209	-0.199865
-0.822121	0.0497237
-0.882101	-0.210301
-0.832109	0.0541784
-0.892081	-0.206653
-0.842047	0.046966
-0.902096	-0.219296
-0.852046	0.0529904
-0.912045	-0.207756
-0.862072	0.0462024
-0.92201	-0.20835
-0.872102	0.0430629
-0.932005	-0.212253
-0.882101	0.0523116
-0.942073	-0.214289
-0.892081	0.0476448
-0.952046	-0.208095
-0.902069	0.0494267
-0.962091	-0.20398
-0.912079	0.0477297
-0.972075	-0.21272
-0.922079	0.0531601
-0.982032	-0.200841
-0.93204	0.0492146
-0.992073	-0.203895
-0.942024	0.0445478
-1.0021	-0.208944
-0.952038	0.0474751
-1.01205	-0.207501
-0.962064	0.0481115
-1.02207	-0.211023
-0.97201	0.0481539
-1.03207	-0.211532
-0.982063	0.0436569
-1.042	-0.212889
-0.992058	0.0477721
-1.05207	-0.214459
-1.002	0.0433175
-1.06203	-0.217556
-1.01202	0.040178
-1.07205	-0.216962
-1.022	0.0411962
-1.08198	-0.219932
-1.03204	0.043275
-1.092	-0.22252
-1.042	0.0444205
-1.10203	-0.228884
-1.05206	0.036487
-1.11194	-0.23389
-1.06203	0.0407295
-1.12211	-0.238557
-1.07201	0.041281

File: CoPc(OMe)8_CNT_VFSWV_scans_44_43_C02.txt
Ewe/V	<I>/mA
-0.122041	-0.017266
-0.072114	0.0369918
-0.132071	-0.0169223
-0.0821323	0.0331735
-0.14204	-0.0108513
-0.0920591	0.024697
-0.152024	-0.00443655
-0.102077	0.0285534
-0.162084	-0.00997306
-0.112107	0.0319135
-0.172095	-0.023108
-0.12211	0.0298135
-0.182056	-0.0200533
-0.132067	0.0248497
-0.192036	-0.0151277
-0.14207	0.0263006
-0.202005	-0.0168078
-0.152047	0.0299662
-0.212054	-0.0199388
-0.162054	0.0314935
-0.22203	-0.0222679
-0.172057	0.0288207
-0.232025	-0.0166932
-0.182037	0.0321044
-0.242005	-0.0188315
-0.192063	0.0300044
-0.252058	-0.0250935
-0.202035	0.0294698
-0.262008	-0.0324628
-0.21205	0.0330208
-0.272022	-0.0264299
-0.222068	0.0270261
-0.282079	-0.0317373
-0.232048	0.0260334
-0.292143	-0.033761
-0.242063	0.0270261
-0.302123	-0.0357083
-0.252035	0.0203059
-0.312107	-0.0401757
-0.262008	0.0212223
-0.322156	-0.0443376
-0.272034	0.0229024
-0.332086	-0.0390684
-0.282105	0.0195041
-0.342108	-0.0429249
-0.292116	0.0220623
-0.352066	-0.0420085
-0.302153	0.0168695
-0.362099	-0.0464377
-0.312145	0.0183204
-0.372053	-0.0481559
-0.32214	0.0204968
-0.382079	-0.0502941
-0.332094	0.0243915
-0.392101	-0.0481177
-0.342074	0.0245824
-0.402111	-0.0484996
-0.352108	0.0206878
-0.412118	-0.0476977
-0.362145	0.0203823
-0.422091	-0.0539597
-0.372075	0.0233987
-0.432098	-0.0606035
-0.382059	0.0195805
-0.442108	-0.0552579
-0.392112	0.0159149
-0.452127	-0.0557161
-0.402134	0.0245824
-0.462099	-0.0598399
-0.412046	0.0318753
-0.472056	-0.0580834
-0.422075	0.0320281
-0.482071	-0.0641545
-0.432063	0.021986
-0.492089	-0.0624363
-0.442085	0.0220242
-0.502058	-0.0672091
-0.452085	0.022826
-0.512149	-0.0710274
-0.462095	0.024086
-0.522022	-0.0750366
-0.472136	0.026377
-0.532113	-0.0785876
-0.482063	0.0254606
-0.542074	-0.0832078
-0.492074	0.0250024
-0.552065	-0.0929444
-0.502054	0.0296225
-0.562023	-0.103636
-0.512088	0.0316462
-0.572049	-0.115243
-0.522071	0.0368391
-0.582025	-0.126163
-0.532067	0.0331735
-0.592051	-0.148615
-0.542089	0.0471867
-0.602054	-0.168661
-0.552046	0.0590997
-0.612042	-0.191571
-0.562026	0.0625362
-0.622064	-0.214442
-0.572052	0.0801766
-0.632002	-0.242239
-0.582048	0.094037
-0.642047	-0.258658
-0.592055	0.113778
-0.651996	-0.272136
-0.602042	0.130731
-0.662026	-0.28531
-0.612049	0.141575
-0.672071	-0.287753
-0.622037	0.157115
-0.682032	-0.285959
-0.632029	0.170785
-0.691997	-0.268585
-0.642035	0.173457
-0.702046	-0.2582
-0.652004	0.162881
-0.712141	-0.247585
-0.661965	0.165286
-0.722144	-0.23403
-0.672037	0.148409
-0.732131	-0.221315
-0.68204	0.137833
-0.742104	-0.217344
-0.692032	0.121987
-0.752115	-0.207646
-0.70213	0.103659
-0.762091	-0.199475
-0.712099	0.0965189
-0.772056	-0.194434
-0.722136	0.0865532
-0.78209	-0.195122
-0.732048	0.0755947
-0.79207	-0.18676
-0.742058	0.06876
-0.802103	-0.186187
-0.752122	0.0665453
-0.812072	-0.18718
-0.762091	0.0616198
-0.822052	-0.189089
-0.77209	0.0587179
-0.832105	-0.187981
-0.782063	0.0521886
-0.842096	-0.184583
-0.792062	0.0536777
-0.852084	-0.186607
-0.802057	0.054785
-0.862045	-0.191876
-0.812076	0.0507377
-0.872071	-0.188287
-0.822113	0.0494013
-0.88212	-0.189623
-0.83212	0.0479121
-0.892092	-0.188974
-0.842108	0.0478358
-0.90205	-0.192143
-0.852084	0.0496304
-0.912095	-0.195236
-0.862091	0.0471103
-0.922117	-0.194625
-0.872109	0.0431011
-0.93212	-0.192602
-0.882086	0.0454302
-0.94207	-0.197069
-0.892066	0.0457739
-0.952069	-0.1918
-0.902076	0.0431011
-0.962087	-0.191991
-0.912026	0.0469957
-0.972021	-0.189051
-0.922033	0.0459266
-0.982047	-0.187332
-0.932055	0.0452775
-0.992024	-0.193671
-0.942047	0.0477212
-1.00212	-0.186683
-0.952069	0.049134
-1.01205	-0.189509
-0.962098	0.0476067
-1.02211	-0.188592
-0.972082	0.0500122
-1.03201	-0.190425
-0.982051	0.0464994
-1.04205	-0.194091
-0.992089	0.0476067
-1.05202	-0.194511
-1.00205	0.043292
-1.06202	-0.196993
-1.01206	0.0489049
-1.07205	-0.196305
-1.02204	0.0442084
-1.08202	-0.202987
-1.03204	0.0474157
-1.09203	-0.201078
-1.04203	0.0473012
-1.10205	-0.200925
-1.05205	0.0431393
-1.11201	-0.212075
-1.06201	0.0474157
-1.12214	-0.218642
-1.07196	0.0464612

File: CoPc(OMe)8_CNT_VFSWV_scans_45_44_C02.txt
Ewe/V	<I>/mA
-0.122045	-0.00161102
-0.0720949	0.0269116
-0.132022	-0.0140204
-0.0821017	0.0253079
-0.142093	-0.0177242
-0.0920781	0.0212987
-0.152073	-0.0160823
-0.102096	0.0204968
-0.16205	-0.0180678
-0.112119	0.0202677
-0.172026	-0.0187933
-0.122019	0.0186259
-0.182056	-0.023528
-0.132086	0.0190077
-0.192013	-0.0227643
-0.142074	0.0224824
-0.202062	-0.0241007
-0.152081	0.0216041
-0.212015	-0.0265826
-0.162084	0.0142349
-0.222072	-0.0263917
-0.172057	0.0175186
-0.232021	-0.0268499
-0.182048	0.0112566
-0.242066	-0.0262771
-0.192036	0.0189313
-0.25205	-0.0325773
-0.202012	0.0180913
-0.262046	-0.0344864
-0.212011	0.0118675
-0.272007	-0.0366629
-0.222072	0.0113711
-0.282124	-0.0392593
-0.232041	0.0182441
-0.292116	-0.0389157
-0.242051	0.0225205
-0.302119	-0.0334555
-0.252016	0.0233606
-0.312118	-0.0329973
-0.261992	0.0180913
-0.32214	-0.039603
-0.272037	0.0185495
-0.332079	-0.0373502
-0.282102	0.0159531
-0.342135	-0.0489959
-0.292066	0.0129366
-0.352131	-0.0421994
-0.302169	0.0186259
-0.362126	-0.0451395
-0.312107	0.0191986
-0.372121	-0.0513633
-0.322106	0.0133185
-0.382078	-0.0433449
-0.332075	0.0212605
-0.392093	-0.0494923
-0.342093	0.0198859
-0.402104	-0.0544943
-0.352088	0.0230169
-0.412137	-0.0557543
-0.362133	0.019275
-0.422083	-0.0541506
-0.372117	0.0183204
-0.432109	-0.0524706
-0.382105	0.020955
-0.442024	-0.0524706
-0.392108	0.0273316
-0.452046	-0.0509814
-0.402096	0.0166022
-0.462114	-0.0599544
-0.412111	0.0120203
-0.472083	-0.0594198
-0.422095	0.0179768
-0.482075	-0.0651855
-0.432082	0.0173659
-0.492074	-0.0685837
-0.442059	0.0175186
-0.502077	-0.0669419
-0.452031	0.0196568
-0.512034	-0.0709893
-0.462088	0.0222533
-0.52206	-0.0698056
-0.472106	0.0196568
-0.532075	-0.072402
-0.482105	0.0212605
-0.542055	-0.0788549
-0.492078	0.024086
-0.55202	-0.0878661
-0.502062	0.0257279
-0.562011	-0.0895079
-0.512068	0.0313408
-0.572056	-0.104285
-0.522052	0.0322572
-0.582025	-0.115854
-0.532086	0.0356554
-0.59202	-0.141628
-0.542051	0.0391683
-0.602061	-0.154495
-0.552069	0.0457739
-0.61203	-0.171334
-0.562057	0.0554723
-0.622022	-0.193403
-0.57206	0.0586033
-0.632082	-0.214213
-0.582048	0.0794893
-0.642039	-0.22857
-0.592051	0.0947625
-0.651993	-0.242888
-0.602042	0.110265
-0.662026	-0.246363
-0.61208	0.123361
-0.67206	-0.258162
-0.621987	0.129814
-0.682006	-0.247852
-0.632029	0.141498
-0.692062	-0.244912
-0.642074	0.143102
-0.702016	-0.234717
-0.652061	0.140582
-0.712106	-0.220513
-0.662045	0.137718
-0.722079	-0.21448
-0.671999	0.12424
-0.732112	-0.19978
-0.681979	0.107019
-0.742104	-0.194129
-0.692062	0.102094
-0.752092	-0.194014
-0.702122	0.093197
-0.762095	-0.18844
-0.712137	0.0811694
-0.772075	-0.180536
-0.722106	0.0717382
-0.782101	-0.178283
-0.732128	0.0690654
-0.792112	-0.17855
-0.742123	0.0568469
-0.802077	-0.179199
-0.752103	0.0551669
-0.812068	-0.176679
-0.762061	0.0592906
-0.822064	-0.171945
-0.772098	0.0493631
-0.832124	-0.179734
-0.782067	0.0488667
-0.842051	-0.171563
-0.792032	0.046423
-0.852084	-0.172365
-0.802057	0.046423
-0.862064	-0.176641
-0.812053	0.0422611
-0.872067	-0.179543
-0.822083	0.0421847
-0.882051	-0.180994
-0.832082	0.0416883
-0.8921	-0.186301
-0.842051	0.0372209
-0.902069	-0.178474
-0.852073	0.0400846
-0.912064	-0.173357
-0.862072	0.0426047
-0.922121	-0.178627
-0.872105	0.044132
-0.931971	-0.175916
-0.882112	0.0411919
-0.942035	-0.183247
-0.892058	0.0426047
-0.952034	-0.179238
-0.902061	0.0381373
-0.962007	-0.177328
-0.912095	0.0386719
-0.972044	-0.175687
-0.922044	0.039321
-0.982021	-0.176603
-0.932089	0.0388628
-0.992031	-0.177825
-0.94205	0.0434065
-1.00206	-0.181109
-0.952046	0.039741
-1.01208	-0.179696
-0.962099	0.0407719
-1.02198	-0.18023
-0.97204	0.0384428
-1.03198	-0.178092
-0.982032	0.0371446
-1.04197	-0.178321
-0.992008	0.0435975
-1.05202	-0.180383
-1.00205	0.0398555
-1.06204	-0.188974
-1.01206	0.0421465
-1.07201	-0.193823
-1.02204	0.0387482
-1.08205	-0.183132
-1.03209	0.0382137
-1.09208	-0.192869
-1.04203	0.038061
-1.10204	-0.198787
-1.05203	0.03619
-1.11204	-0.19348
-1.06205	0.0428338
-1.12211	-0.206386
-1.07205	0.0399319

File: CoPc(OMe)8_CNT_VFSWV_scans_46_45_C02.txt
Ewe/V	<I>/mA
-0.122114	-0.00657479
-0.0720911	0.0262972
-0.132094	-0.0121287
-0.0820789	0.0276856
-0.142067	-0.0119898
-0.0921239	0.0170291
-0.152058	-0.0153221
-0.102073	0.0217152
-0.162088	-0.0185503
-0.112084	0.0160225
-0.172083	-0.0217091
-0.122064	0.01873
-0.182098	-0.0187239
-0.132041	0.0171333
-0.192074	-0.0218826
-0.142089	0.0203615
-0.202066	-0.0233405
-0.152096	0.0195284
-0.212042	-0.0251108
-0.162073	0.0163002
-0.222037	-0.0263952
-0.172099	0.0195631
-0.232052	-0.02702
-0.182067	0.0165085
-0.242063	-0.0237224
-0.192063	0.0152241
-0.252058	-0.0316366
-0.202085	0.0143911
-0.262011	-0.0299705
-0.212069	0.0150506
-0.272045	-0.0350384
-0.222053	0.0182093
-0.282147	-0.0380236
-0.232025	0.0192854
-0.29212	-0.0356979
-0.242044	0.0186259
-0.302131	-0.0390302
-0.252062	0.0151894
-0.312134	-0.0334069
-0.262076	0.0210557
-0.322156	-0.0398286
-0.27203	0.0235897
-0.332124	-0.0404534
-0.282121	0.0182093
-0.342101	-0.0411823
-0.292078	0.015849
-0.352115	-0.0399327
-0.302134	0.0186953
-0.362069	-0.0415295
-0.312145	0.0168903
-0.372144	-0.0415989
-0.32214	0.0170639
-0.382136	-0.0440287
-0.332105	0.0174457
-0.392116	-0.0471875
-0.342127	0.0180011
-0.402157	-0.0457296
-0.352111	0.0178275
-0.412057	-0.0507975
-0.362099	0.0163349
-0.422106	-0.0580869
-0.372098	0.0132456
-0.432132	-0.0517694
-0.38209	0.0223747
-0.442085	-0.0532967
-0.392105	0.0186606
-0.452081	-0.057358
-0.402081	0.0167167
-0.462175	-0.0486801
-0.412061	0.0225136
-0.47206	-0.0515611
-0.422102	0.0209169
-0.482036	-0.059406
-0.432082	0.0217846
-0.492039	-0.0601349
-0.44207	0.018973
-0.502104	-0.0574968
-0.452062	0.0168903
-0.512049	-0.06614
-0.462091	0.0203615
-0.522064	-0.0621829
-0.472041	0.0228607
-0.532097	-0.0676673
-0.482075	0.0227913
-0.542051	-0.0743667
-0.49207	0.0251864
-0.552054	-0.0713815
-0.502077	0.024145
-0.562007	-0.0818991
-0.512053	0.0279633
-0.572037	-0.0926945
-0.522068	0.0333089
-0.582071	-0.102483
-0.532059	0.0384463
-0.592036	-0.115604
-0.542036	0.0360859
-0.60205	-0.133932
-0.552081	0.0422298
-0.612061	-0.150316
-0.562095	0.0527822
-0.622048	-0.164825
-0.572041	0.0587873
-0.632063	-0.182424
-0.582048	0.0788854
-0.641925	-0.195233
-0.592028	0.0817664
-0.652046	-0.209777
-0.602008	0.0964495
-0.662042	-0.214671
-0.61203	0.114465
-0.672048	-0.214567
-0.621987	0.121199
-0.682032	-0.216511
-0.632021	0.126232
-0.692016	-0.214463
-0.642032	0.127065
-0.702019	-0.206306
-0.652027	0.121546
-0.712103	-0.196934
-0.662019	0.113771
-0.722094	-0.192317
-0.672003	0.110681
-0.732116	-0.185132
-0.682006	0.098428
-0.742058	-0.181244
-0.692005	0.0897501
-0.752092	-0.179578
-0.702149	0.0861748
-0.762061	-0.173503
-0.712084	0.0751018
-0.772083	-0.158924
-0.722129	0.0779481
-0.782082	-0.161042
-0.732109	0.0632998
-0.792062	-0.16486
-0.742158	0.0607311
-0.802023	-0.158438
-0.752115	0.0567046
-0.812076	-0.159619
-0.762061	0.0557674
-0.822071	-0.157952
-0.772121	0.0492763
-0.832086	-0.155696
-0.782135	0.0511854
-0.842115	-0.157779
-0.792073	0.0432712
-0.852088	-0.156633
-0.802092	0.0479573
-0.862114	-0.158022
-0.812091	0.0440695
-0.872121	-0.160868
-0.82209	0.0460481
-0.882116	-0.157779
-0.832101	0.0433059
-0.89207	-0.162291
-0.842123	0.0462217
-0.902084	-0.160799
-0.852118	0.0426117
-0.912068	-0.164582
-0.862091	0.0468812
-0.922075	-0.161875
-0.872052	0.043167
-0.93204	-0.157189
-0.882047	0.0484085
-0.942089	-0.161944
-0.8921	0.0435142
-0.952038	-0.156842
-0.902084	0.0462564
-0.962079	-0.159341
-0.91203	0.0461175
-0.972014	-0.160348
-0.922029	0.0485473
-0.982105	-0.155488
-0.932074	0.0466729
-0.992058	-0.160799
-0.942127	0.0453192
-1.00203	-0.157744
-0.95208	0.0480267
-1.01205	-0.160105
-0.962072	0.0457357
-1.02206	-0.155523
-0.972041	0.0468812
-1.03208	-0.166457
-0.982055	0.0466382
-1.04203	-0.16066
-0.992043	0.0457357
-1.05204	-0.167915
-1.00203	0.0424034
-1.06203	-0.156252
-1.01208	0.038481
-1.07203	-0.166943
-1.02204	0.0427158
-1.08204	-0.169616
-1.032	0.0467076
-1.09202	-0.170275
-1.04202	0.0387587
-1.10202	-0.173538
-1.05211	0.0421604
-1.11203	-0.178467
-1.06205	0.0405984
-1.12212	-0.182077
-1.072	0.0428893

File: CoPc(OMe)8_CNT_VFSWV_scans_47_46_C02.txt
Ewe/V	<I>/mA
-0.122049	0.00220726
-0.0720605	0.0329618
-0.132083	0.0029015
-0.0820597	0.0362941
-0.142074	-0.000951498
-0.0920704	0.0312609
-0.152047	-0.00265237
-0.102096	0.0278245
-0.162107	-0.00501276
-0.112046	0.0308791
-0.172038	-0.00747729
-0.12206	0.0329965
-0.182041	-0.00379786
-0.132086	0.024631
-0.19204	-0.00733845
-0.142074	0.0277203
-0.20205	-0.00240939
-0.152073	0.0315039
-0.212054	-0.00671364
-0.162099	0.0304626
-0.222076	-0.0161205
-0.17208	0.0286923
-0.232086	-0.0131353
-0.182117	0.0280328
-0.242116	-0.0162246
-0.192013	0.0306361
-0.252066	-0.0140378
-0.202058	0.0270955
-0.262069	-0.0135865
-0.212034	0.0332048
-0.271995	-0.0224033
-0.222049	0.0271997
-0.282155	-0.0169883
-0.232033	0.031851
-0.292112	-0.0211537
-0.242013	0.0277203
-0.302146	-0.0260828
-0.252073	0.0256029
-0.312122	-0.0259092
-0.262046	0.0312262
-0.322163	-0.0294845
-0.272045	0.026193
-0.332094	-0.0257356
-0.28214	0.0271997
-0.342112	-0.0271241
-0.29217	0.0263666
-0.352081	-0.0278878
-0.30215	0.0286228
-0.362134	-0.030144
-0.312084	0.0291782
-0.372117	-0.0265687
-0.322064	0.0266096
-0.382121	-0.0306647
-0.33214	0.0276162
-0.392074	-0.0279919
-0.34207	0.0334825
-0.402096	-0.0302482
-0.352115	0.030289
-0.412042	-0.0328515
-0.362084	0.0268178
-0.422083	-0.0314631
-0.372106	0.0333089
-0.43209	-0.0334069
-0.382086	0.034385
-0.44207	-0.0356285
-0.392082	0.0328924
-0.452073	-0.0367392
-0.402123	0.0276856
-0.462099	-0.0406269
-0.412099	0.032094
-0.472083	-0.0405922
-0.422056	0.0296642
-0.482105	-0.04809
-0.432052	0.0329965
-0.492085	-0.0454519
-0.44212	0.0308097
-0.502042	-0.0469098
-0.452069	0.0305667
-0.512023	-0.0503462
-0.462111	0.0339684
-0.522029	-0.0501032
-0.472049	0.033656
-0.532086	-0.053505
-0.482052	0.0320593
-0.542074	-0.0554488
-0.492047	0.0407025
-0.552065	-0.057601
-0.50205	0.0429241
-0.562023	-0.0728741
-0.512026	0.0331701
-0.572033	-0.076623
-0.522045	0.0385157
-0.582017	-0.0868976
-0.532002	0.0381686
-0.592016	-0.104184
-0.542062	0.0446944
-0.602046	-0.108176
-0.552062	0.0492763
-0.612084	-0.127371
-0.562026	0.0555591
-0.622041	-0.143304
-0.572049	0.0611824
-0.632059	-0.155731
-0.58204	0.0754142
-0.642036	-0.168435
-0.59202	0.079649
-0.652027	-0.181487
-0.602016	0.093742
-0.662015	-0.188186
-0.612049	0.0985322
-0.672052	-0.191414
-0.62206	0.10478
-0.682002	-0.190443
-0.63204	0.112174
-0.692009	-0.184889
-0.642035	0.110959
-0.702	-0.178259
-0.652027	0.108078
-0.712126	-0.173677
-0.662022	0.107835
-0.722056	-0.169477
-0.67201	0.104503
-0.732059	-0.161181
-0.682029	0.0984627
-0.742119	-0.152711
-0.692005	0.0861748
-0.752115	-0.151322
-0.702107	0.0803432
-0.762122	-0.15764
-0.712087	0.0754489
-0.772071	-0.149691
-0.72214	0.0653825
-0.782097	-0.150941
-0.732151	0.059551
-0.79207	-0.147955
-0.742112	0.0547607
-0.802046	-0.14556
-0.752119	0.0518797
-0.812114	-0.143894
-0.762083	0.0497623
-0.822102	-0.141464
-0.772071	0.0452845
-0.832059	-0.148893
-0.782093	0.045701
-0.842051	-0.146845
-0.792058	0.051116
-0.85208	-0.13775
-0.802077	0.0477143
-0.862057	-0.145317
-0.812102	0.0461522
-0.872094	-0.150975
-0.822086	0.0389669
-0.882109	-0.153683
-0.832097	0.0451803
-0.892085	-0.15278
-0.842096	0.0400777
-0.902092	-0.153752
-0.852035	0.037752
-0.91206	-0.148094
-0.862114	0.0387934
-0.922033	-0.152399
-0.87209	0.0434794
-0.932044	-0.153648
-0.882074	0.0374743
-0.94207	-0.151947
-0.89202	0.0441737
-0.952034	-0.150142
-0.902157	0.0408066
-0.962076	-0.150524
-0.912068	0.0402513
-0.97209	-0.145595
-0.922056	0.044382
-0.982024	-0.149448
-0.932097	0.050873
-0.992066	-0.146046
-0.942096	0.0399389
-1.00202	-0.146463
-0.951985	0.045458
-1.01199	-0.14799
-0.962018	0.0448332
-1.02206	-0.149691
-0.972029	0.0443472
-1.03197	-0.149587
-0.982055	0.0441043
-1.04204	-0.147955
-0.992089	0.0479573
-1.05201	-0.148268
-1.002	0.0489986
-1.062	-0.150628
-1.01205	0.0485821
-1.072	-0.154585
-1.02204	0.0475407
-1.08197	-0.154169
-1.03207	0.0449373
-1.09204	-0.158438
-1.04207	0.0484779
-1.10204	-0.16427
-1.05203	0.044972
-1.11199	-0.166457
-1.06208	0.0354263
-1.12215	-0.172149
-1.07206	0.0386892

File: CoPc(OMe)8_CNT_VFSWV_scans_48_47_C02.txt
Ewe/V	<I>/mA
-0.122099	-0.0054293
-0.0720567	0.0310035
-0.132052	0.000870865
-0.0821094	0.0262306
-0.142089	-0.00695662
-0.0920857	0.0249897
-0.152062	-0.00215194
-0.102077	0.0244806
-0.162046	-0.00527021
-0.112073	0.0282671
-0.172045	-0.00600205
-0.122061	0.023176
-0.182006	-0.00565204
-0.132086	0.0214578
-0.192021	-0.0103294
-0.142093	0.0240988
-0.202001	-0.0131613
-0.152085	0.0214578
-0.212027	-0.015325
-0.162057	0.0176077
-0.222034	-0.0187615
-0.172034	0.0190395
-0.232002	-0.013925
-0.182025	0.021076
-0.242051	-0.0196524
-0.192013	0.0203759
-0.251986	-0.0188888
-0.202047	0.0208214
-0.261981	-0.0170751
-0.212015	0.0190714
-0.271992	-0.0222934
-0.22203	0.0206305
-0.282079	-0.0282754
-0.232014	0.0209487
-0.292147	-0.024298
-0.241975	0.0237806
-0.302077	-0.0289118
-0.252043	0.0171622
-0.312092	-0.0248707
-0.262042	0.0179895
-0.322095	-0.0249344
-0.27198	0.0176395
-0.332136	-0.02958
-0.282117	0.0184668
-0.342043	-0.0284345
-0.292131	0.0172577
-0.352089	-0.0333982
-0.302104	0.0188168
-0.362111	-0.0278299
-0.312095	0.0187532
-0.372095	-0.0308845
-0.32214	0.0183395
-0.38209	-0.0335255
-0.332056	0.0203441
-0.392085	-0.0335573
-0.342043	0.0179259
-0.402081	-0.0370892
-0.3521	0.0226669
-0.412118	-0.037662
-0.362069	0.0194532
-0.422033	-0.0378847
-0.372095	0.0277898
-0.43209	-0.0404621
-0.382056	0.0225078
-0.442047	-0.0428485
-0.392123	0.0204078
-0.452058	-0.0429121
-0.402096	0.0169713
-0.462057	-0.0415439
-0.412084	0.0180213
-0.472037	-0.0447895
-0.422068	0.0216805
-0.482052	-0.0418939
-0.43214	0.0213305
-0.492039	-0.0499441
-0.442062	0.0199941
-0.502035	-0.0527124
-0.452096	0.0236851
-0.512019	-0.0522351
-0.462088	0.0142349
-0.522087	-0.0573898
-0.472049	0.0159213
-0.532044	-0.0615581
-0.482025	0.0231442
-0.54207	-0.0546534
-0.492043	0.0308762
-0.552077	-0.0620672
-0.502065	0.0250533
-0.562053	-0.0682719
-0.512038	0.0272488
-0.572056	-0.0738402
-0.522052	0.0303989
-0.582044	-0.0860587
-0.532078	0.0256579
-0.592036	-0.0952226
-0.542055	0.0289989
-0.602069	-0.102986
-0.552058	0.0395946
-0.612072	-0.109859
-0.562026	0.0328808
-0.622014	-0.118419
-0.572094	0.0392128
-0.632029	-0.139483
-0.582052	0.0489494
-0.642047	-0.144415
-0.592066	0.0545814
-0.652046	-0.152147
-0.60205	0.0622498
-0.661984	-0.165447
-0.612034	0.0698545
-0.672014	-0.159815
-0.622029	0.0790821
-0.681971	-0.156602
-0.632044	0.080323
-0.692001	-0.156952
-0.642043	0.0830594
-0.701981	-0.153611
-0.652027	0.0792411
-0.712091	-0.151351
-0.662045	0.0803866
-0.722155	-0.151924
-0.672048	0.0752638
-0.73212	-0.145338
-0.682082	0.0752638
-0.742089	-0.143778
-0.691971	0.0615179
-0.752141	-0.140978
-0.702107	0.0596724
-0.762114	-0.140247
-0.712125	0.0543905
-0.772064	-0.137001
-0.722113	0.0539132
-0.782059	-0.133374
-0.732097	0.0487585
-0.792073	-0.130733
-0.742058	0.0431902
-0.80205	-0.134646
-0.752096	0.0426174
-0.81203	-0.133278
-0.762099	0.0424902
-0.822125	-0.129874
-0.77209	0.0396583
-0.832074	-0.13191
-0.782078	0.0370491
-0.842089	-0.134265
-0.792032	0.0366673
-0.852118	-0.137319
-0.802065	0.0378128
-0.862026	-0.137542
-0.81206	0.029158
-0.872086	-0.138401
-0.822071	0.0306535
-0.882112	-0.144128
-0.832055	0.0342172
-0.892081	-0.142092
-0.84207	0.0303035
-0.902038	-0.142315
-0.852092	0.0306217
-0.91206	-0.141201
-0.862076	0.0332945
-0.922083	-0.141169
-0.872052	0.0312262
-0.932047	-0.133501
-0.882063	0.0339308
-0.942066	-0.13891
-0.892085	0.0343763
-0.952099	-0.138274
-0.902023	0.0308444
-0.962057	-0.137828
-0.912064	0.0314171
-0.972021	-0.137669
-0.922075	0.0346627
-0.982036	-0.139356
-0.932028	0.0240669
-0.992028	-0.135919
-0.942028	0.0319581
-1.00206	-0.140278
-0.952061	0.0356173
-1.01206	-0.135601
-0.961995	0.0299216
-1.02201	-0.144224
-0.97206	0.0334217
-1.03205	-0.142728
-0.982097	0.0356491
-1.04202	-0.140087
-0.992016	0.0319581
-1.05204	-0.145051
-1.00204	0.0270898
-1.06206	-0.148201
-1.01208	0.0299853
-1.07197	-0.150556
-1.02202	0.0312899
-1.08203	-0.146674
-1.032	0.0316081
-1.09205	-0.150588
-1.042	0.0310671
-1.10203	-0.157588
-1.05205	0.0263579
-1.11197	-0.154215
-1.06205	0.0248624
-1.12211	-0.16357
-1.07202	0.0275034