Folder: ElectrochemLabUtils/VFSWV_data_prep/Example_data/CoPc(OMe)8_VFSWV_txt_data (part 12)

File: CoPc(OMe)8_CNT_VFSWV_scans_67_66_C02.txt
Ewe/V	<I>/mA
-0.122129	-0.00182446
-0.0720988	0.0138411
-0.132052	0.00637158
-0.0820979	0.0135189
-0.142089	0.00631192
-0.0920552	0.0184827
-0.152058	0.0105538
-0.102066	0.013674
-0.162061	0.00643721
-0.112077	0.0124749
-0.172064	0.00622243
-0.122041	0.0126598
-0.18209	0.00779151
-0.132064	0.014921
-0.19207	0.00678324
-0.142055	0.0128567
-0.202012	0.00856113
-0.151993	0.0133399
-0.212034	0.00557809
-0.162	0.0124092
-0.222022	0.00544684
-0.172018	0.0131252
-0.232033	0.00289933
-0.182037	0.011216
-0.242005	0.00367492
-0.191994	0.00930092
-0.251993	0.000321987
-0.202031	0.00865062
-0.262004	-0.00027462
-0.211992	0.0111862
-0.272049	5.78508e-06
-0.222022	0.0109476
-0.282082	-0.000686279
-0.231999	0.0129402
-0.292108	0.00473688
-0.242005	0.0122124
-0.302123	0.00436698
-0.252001	0.0107626
-0.312118	0.00307831
-0.262034	0.0114666
-0.322076	0.00692643
-0.272041	0.0150104
-0.332109	0.00504711
-0.282132	0.013674
-0.342085	0.00711734
-0.292128	0.0118067
-0.3521	0.00292916
-0.302169	0.0137635
-0.362107	0.00439085
-0.312107	0.0115143
-0.372098	0.00178964
-0.322072	0.0114785
-0.382056	0.0048204
-0.332117	0.0120692
-0.39212	0.00406271
-0.342116	0.0102555
-0.402085	0.00278597
-0.352115	0.0104166
-0.412038	0.000632222
-0.362134	0.00970661
-0.422022	-0.00136044
-0.372129	0.00908614
-0.432063	0.00170611
-0.382109	0.014032
-0.442093	-0.00142011
-0.392089	0.0122899
-0.452107	-0.000340247
-0.40205	0.0116754
-0.462103	0.00178367
-0.412042	0.0120036
-0.472041	7.14119e-05
-0.422087	0.0132266
-0.482048	0.00422976
-0.432044	0.0140499
-0.49207	0.00392549
-0.44207	0.0126539
-0.502054	0.00442068
-0.452046	0.0118604
-0.512053	0.00174191
-0.462076	0.0129104
-0.521991	-0.00116953
-0.472072	0.013149
-0.532101	-0.000203027
-0.48204	0.0141752
-0.542058	-0.00238661
-0.492066	0.00860289
-0.552046	-0.00543527
-0.502058	0.00491586
-0.562045	-0.00503554
-0.512065	0.00785713
-0.571995	-0.00399148
-0.522018	0.00891313
-0.582021	-0.00521453
-0.532067	0.011049
-0.592058	-0.00759499
-0.542055	0.0109237
-0.602008	-0.00665831
-0.552042	0.0148374
-0.612045	-0.00644354
-0.561977	0.0122124
-0.621999	-0.00705207
-0.572018	0.0126777
-0.632048	-0.0130599
-0.581983	0.0107447
-0.642009	-0.0126661
-0.592085	0.016317
-0.652027	-0.0129167
-0.602046	0.0122362
-0.662022	-0.0176299
-0.612042	0.00779747
-0.672045	-0.015679
-0.622041	0.00921143
-0.682032	-0.0169319
-0.632051	0.00895489
-0.691993	-0.0163054
-0.642001	0.0095515
-0.702	-0.0180654
-0.652035	0.00989156
-0.712061	-0.0155716
-0.661984	0.00797049
-0.722056	-0.0182325
-0.672048	0.00606731
-0.732139	-0.0193422
-0.682025	0.00600765
-0.742127	-0.0191572
-0.692051	0.00722473
-0.752058	-0.0181967
-0.702153	0.0091816
-0.762026	-0.0197121
-0.712041	0.00506501
-0.772117	-0.0186799
-0.722109	0.00532752
-0.782112	-0.0199507
-0.73212	0.00659829
-0.792123	-0.018495
-0.742066	0.010697
-0.802077	-0.0182027
-0.7521	0.00910404
-0.812064	-0.0151719
-0.762099	0.00768412
-0.82209	-0.0141338
-0.772079	0.0107387
-0.832074	-0.0168901
-0.782063	0.00942024
-0.842077	-0.0163293
-0.79207	0.0109834
-0.852118	-0.0161145
-0.802015	0.00911597
-0.862068	-0.0149929
-0.812064	0.00968872
-0.872117	-0.0185547
-0.82206	0.0116993
-0.882055	-0.0157387
-0.832112	0.0098856
-0.892047	-0.0158043
-0.842085	0.0111086
-0.902065	-0.0146886
-0.852088	0.00962309
-0.912026	-0.0171586
-0.862079	0.0151536
-0.922113	-0.00883593
-0.872098	0.015434
-0.932063	-0.017433
-0.882059	0.0100765
-0.942047	-0.0175225
-0.892047	0.0102734
-0.952076	-0.0178865
-0.902088	0.0055423
-0.96203	-0.0177492
-0.912041	0.00511274
-0.972048	-0.0202252
-0.922113	0.00588236
-0.98207	-0.0188589
-0.932066	0.00535735
-0.992039	-0.0190797
-0.94202	0.00703978
-1.00208	-0.0192467
-0.95205	0.00551843
-1.01204	-0.0199746
-0.962068	0.0107865
-1.02198	-0.0202311
-0.97201	0.00665199
-1.03205	-0.0180714
-0.98204	0.00962309
-1.042	-0.0212871
-0.992058	0.00627016
-1.05204	-0.0215974
-1.00202	0.00860886
-1.06201	-0.0182623
-1.01205	0.00746337
-1.07202	-0.023059
-1.02204	0.00909211
-1.08206	-0.0217584
-1.032	0.00742161
-1.092	-0.0216928
-1.04204	0.00783327
-1.10205	-0.0238704
-1.05202	0.00599572
-1.11201	-0.020249
-1.06204	0.00477267
-1.12211	-0.0263284
-1.07202	0.00727246

File: CoPc(OMe)8_CNT_VFSWV_scans_68_67_C02.txt
Ewe/V	<I>/mA
-0.122061	-0.00251175
-0.072114	0.0153904
-0.132056	0.00720118
-0.0820674	0.00796483
-0.14207	0.000142376
-0.0920857	0.0063923
-0.152024	0.0017551
-0.102062	0.00915051
-0.162012	0.00166969
-0.112038	0.00639733
-0.172011	0.00396066
-0.122064	0.00540257
-0.182044	0.00289556
-0.132033	0.00577937
-0.191975	-0.000455486
-0.142013	0.0057643
-0.202039	0.000931154
-0.152062	0.00674399
-0.212031	0.000986418
-0.162065	0.00807536
-0.221965	0.00220224
-0.172015	0.00655307
-0.232041	-0.0029223
-0.18206	0.00995436
-0.242032	0.00100651
-0.192032	0.00944191
-0.252001	-0.00275651
-0.202024	0.00592004
-0.261988	-0.00379146
-0.212019	0.00339797
-0.272026	-0.00531375
-0.222034	0.00332763
-0.282086	-0.0034247
-0.232033	0.00454345
-0.292097	-0.00408788
-0.242021	0.00508605
-0.302081	-0.00477115
-0.252001	0.00444297
-0.312107	-0.00349002
-0.262023	0.00326232
-0.322068	-0.00167131
-0.272018	0.00537242
-0.332079	-0.00303283
-0.282067	0.00414153
-0.342051	-0.0036106
-0.292101	0.00250368
-0.352096	-0.00494197
-0.302111	0.0018606
-0.362107	-0.00687623
-0.312122	0.00157926
-0.372045	-0.00470082
-0.322114	0.000745263
-0.382075	-0.0019828
-0.332021	0.00201635
-0.392162	-0.00466062
-0.342051	0.00604062
-0.402058	-0.00562022
-0.352088	-0.00059616
-0.41203	-0.00581616
-0.36208	0.00398578
-0.422075	-0.0101921
-0.372102	0.00049406
-0.432021	-0.00871001
-0.382082	9.2136e-05
-0.44202	-0.00872006
-0.392047	0.00492528
-0.452039	-0.00555993
-0.402096	0.00353362
-0.462076	-0.00581113
-0.412084	0.00233789
-0.47211	-0.00670541
-0.422037	-0.000726785
-0.482063	-0.00609248
-0.432055	-0.00152561
-0.492039	-0.00889088
-0.442055	5.69676e-05
-0.502058	-0.00972487
-0.45205	3.18475e-05
-0.512015	-0.00332422
-0.462088	0.00471427
-0.522018	-0.0108201
-0.472037	0.00451331
-0.532055	-0.00619799
-0.482017	0.00312667
-0.542032	-0.00967463
-0.492043	-0.000143995
-0.552042	-0.00973492
-0.502054	0.00313672
-0.561981	-0.0125936
-0.512053	0.00141849
-0.572064	-0.0130458
-0.522052	-0.000746882
-0.582052	-0.0127946
-0.532048	0.0016295
-0.592051	-0.0140405
-0.542043	0.00269962
-0.602039	-0.0112622
-0.55205	0.000433772
-0.612019	-0.0126539
-0.561977	0.00356878
-0.622026	-0.0125836
-0.57206	0.000946226
-0.632055	-0.011413
-0.58201	0.00714089
-0.64202	-0.00958922
-0.592005	0.00711577
-0.652004	-0.0143169
-0.602023	0.00517146
-0.66203	-0.0119103
-0.612011	0.000448844
-0.672033	-0.0175976
-0.622006	0.00233287
-0.682029	-0.0167535
-0.632021	0.00284532
-0.691986	-0.0177583
-0.64202	0.000981394
-0.701981	-0.0154071
-0.652027	0.00471427
-0.712087	-0.0211848
-0.661988	0.00350347
-0.722098	-0.0179643
-0.672041	0.00342309
-0.732101	-0.0207577
-0.681998	0.00097637
-0.742073	-0.0183361
-0.691944	0.00468413
-0.752065	-0.0172559
-0.702069	0.00489011
-0.762083	-0.0152915
-0.71208	0.00314676
-0.772136	-0.0193861
-0.72209	0.00262426
-0.782059	-0.0186928
-0.732109	0.00644757
-0.792089	-0.0191952
-0.742081	0.00131801
-0.802031	-0.0154473
-0.75208	0.00331758
-0.811996	-0.018105
-0.762072	0.000936178
-0.822106	-0.0223453
-0.772071	-0.000892579
-0.832067	-0.0222298
-0.782124	0.00252378
-0.842028	-0.0176026
-0.792043	0.000755312
-0.85208	-0.0213355
-0.802061	6.19916e-05
-0.862038	-0.0198634
-0.812041	0.00249364
-0.872079	-0.0194364
-0.82206	-0.000294717
-0.882074	-0.0198684
-0.832135	0.00169983
-0.892077	-0.0185471
-0.842131	-0.00111866
-0.902076	-0.0216218
-0.852046	-0.000505727
-0.912041	-0.0214309
-0.862072	0.000880913
-0.922067	-0.0217625
-0.872102	0.00113212
-0.932082	-0.0196625
-0.882067	-0.00149044
-0.942085	-0.0219384
-0.8921	-9.37542e-05
-0.95205	-0.0260229
-0.902088	-0.00323881
-0.962049	-0.0257064
-0.912072	-0.00094282
-0.972018	-0.0240836
-0.922056	-0.000822242
-0.982055	-0.0238877
-0.932032	-0.00147035
-0.992073	-0.0224307
-0.942047	-0.00113876
-1.00206	-0.0255557
-0.951992	-0.00305292
-1.01207	-0.0243951
-0.962079	-0.000239452
-1.02206	-0.0259023
-0.97206	-0.00255052
-1.03207	-0.0270277
-0.982036	-0.00595181
-1.04207	-0.0292132
-0.992024	-0.00526351
-1.0521	-0.0276859
-1.00201	-0.00489173
-1.06209	-0.0285349
-1.01204	-0.00259574
-1.07201	-0.027093
-1.02205	0.00210678
-1.08204	-0.0278567
-1.03201	0.000373483
-1.09206	-0.0281782
-1.04199	-0.00427879
-1.10205	-0.0242394
-1.05209	-0.00057104
-1.11203	-0.0248774
-1.06205	-0.000867459
-1.12213	-0.028746
-1.07206	0.00191085

File: CoPc(OMe)8_CNT_VFSWV_scans_69_68_C02.txt
Ewe/V	<I>/mA
-0.122072	-0.00793372
-0.0721102	0.00911021
-0.132075	-0.00278375
-0.0821094	0.00758289
-0.142051	-0.0038533
-0.0920934	0.00682782
-0.152054	-0.003429
-0.102085	0.0130915
-0.162073	-0.00276101
-0.112057	0.00577243
-0.172087	-0.00524333
-0.122072	0.00432663
-0.182075	-0.00701905
-0.132029	0.0109421
-0.19207	-0.00410943
-0.142089	0.00479855
-0.202073	-0.00662006
-0.152062	0.00338278
-0.212042	-0.00732665
-0.162065	0.00243894
-0.222041	-0.00952109
-0.17208	0.00577672
-0.232052	-0.00777713
-0.182002	0.00610277
-0.242055	-0.00570453
-0.192074	0.00439956
-0.25202	-0.00600312
-0.202028	0.00627867
-0.262065	-0.00944087
-0.21208	0.00173534
-0.272037	-0.00883509
-0.222022	0.00787463
-0.28217	-0.010534
-0.23206	0.0053477
-0.292131	-0.0071692
-0.242013	0.00607703
-0.302108	-0.00779943
-0.252047	0.0060041
-0.312137	-0.00785135
-0.262015	0.00487577
-0.322152	-0.00421282
-0.271976	0.00645457
-0.332128	-0.00711214
-0.282128	0.0117272
-0.342139	-0.00702119
-0.292097	0.0107491
-0.352146	-0.00384215
-0.302146	0.00471275
-0.362137	-0.006566
-0.312103	0.00606416
-0.372129	-0.00783933
-0.322072	0.00470416
-0.382059	-0.00878232
-0.332109	0.0074928
-0.392127	-0.00871883
-0.342116	0.00430947
-0.402115	-0.0117469
-0.352089	0.00545495
-0.412065	-0.00643987
-0.36213	0.00534341
-0.422052	-0.0089831
-0.372068	0.00733835
-0.432105	-0.00911353
-0.382151	0.00700372
-0.442074	-0.00365338
-0.392108	0.00594403
-0.452142	-0.00643043
-0.402138	0.00595691
-0.462122	-0.00858454
-0.412095	0.00430518
-0.472075	-0.00895565
-0.422125	0.00550214
-0.482048	-0.0106996
-0.432048	0.00520183
-0.492097	-0.00765271
-0.442112	0.00837229
-0.502054	-0.0071426
-0.452096	0.00835942
-0.512026	-0.00795045
-0.462088	0.00852245
-0.522041	-0.00763855
-0.472102	0.00802049
-0.532036	-0.00852748
-0.482052	0.00422366
-0.542089	-0.0087184
-0.492066	0.00413357
-0.552069	-0.00861114
-0.502081	0.00560511
-0.562026	-0.00937566
-0.51208	0.0077116
-0.57201	-0.00623437
-0.522083	0.0115985
-0.582067	-0.000935531
-0.53209	0.00572952
-0.592016	-0.00712544
-0.54207	0.0154254
-0.602035	-0.00246499
-0.55205	0.0101441
-0.612042	-0.0065823
-0.562034	0.0107233
-0.62206	-0.00756733
-0.572049	0.0135506
-0.632029	-0.00545226
-0.582044	0.0171157
-0.642016	-0.00400989
-0.592081	0.0119246
-0.652016	-0.00784963
-0.60205	0.00938478
-0.66203	-0.0102264
-0.612076	0.00962503
-0.672064	-0.0107931
-0.621991	0.00878415
-0.682074	-0.0157303
-0.632063	0.0112811
-0.69202	-0.0170839
-0.642066	0.0116243
-0.702027	-0.0177523
-0.652069	0.0107105
-0.712175	-0.0150503
-0.662053	0.00940623
-0.722171	-0.0141146
-0.672083	0.0133961
-0.732086	-0.0126324
-0.682059	0.0105474
-0.74207	-0.0175107
-0.69202	0.0126196
-0.7521	-0.00822073
-0.702187	0.0135634
-0.762099	-0.0165729
-0.712076	0.0063988
-0.772064	-0.0188579
-0.722079	0.00527905
-0.782093	-0.0187781
-0.732112	0.00309105
-0.792058	-0.0217786
-0.7421	0.00406063
-0.802103	-0.0191908
-0.752157	0.00298808
-0.812114	-0.0191921
-0.762114	0.00478997
-0.822128	-0.0192268
-0.772113	0.00781027
-0.832093	-0.0178209
-0.782109	0.006047
-0.842135	-0.0179707
-0.792123	0.00688788
-0.852168	-0.0178102
-0.802161	0.00566946
-0.862106	-0.0161336
-0.81211	0.00753999
-0.872113	-0.017878
-0.822102	0.00611135
-0.882078	-0.0174854
-0.832109	0.00949204
-0.892104	-0.0178154
-0.842127	0.00782744
-0.902103	-0.0155042
-0.852092	0.00874554
-0.912068	-0.0108721
-0.862099	0.00668195
-0.922044	-0.0174061
-0.872125	0.00608132
-0.932116	-0.0199669
-0.882105	0.00739841
-0.942081	-0.015711
-0.892131	0.00986099
-0.952099	-0.0134552
-0.902084	0.0141297
-0.962095	-0.0104662
-0.91206	0.0144086
-0.972037	-0.011891
-0.922102	0.0108435
-0.982066	-0.0133677
-0.932116	0.0132545
-0.992131	-0.00527679
-0.942127	0.0150908
-1.0021	-0.0139928
-0.952073	0.0120876
-1.01211	-0.0131588
-0.962098	0.00973229
-1.02206	-0.0152567
-0.972086	0.00530479
-1.03202	-0.0128194
-0.98212	0.00808914
-1.04205	-0.01805
-0.992062	0.00683211
-1.05199	-0.0185305
-1.00211	0.00815349
-1.06207	-0.017437
-1.01208	0.00739841
-1.07206	-0.0170916
-1.02211	0.00511602
-1.08206	-0.022354
-1.0321	0.00493584
-1.09207	-0.0230447
-1.04206	0.00564372
-1.10204	-0.0218469
-1.05207	0.00373458
-1.11204	-0.0245977
-1.06205	0.00615855
-1.12218	-0.0158341
-1.07208	0.00684498

File: CoPc(OMe)8_CNT_VFSWV_scans_70_69_C02.txt
Ewe/V	<I>/mA
-0.122057	-0.00106081
-0.0721025	0.0195332
-0.132071	-0.000451014
-0.082098	0.0108192
-0.142044	0.00192955
-0.092059	0.0143577
-0.152031	0.000514143
-0.10207	0.0124524
-0.162023	0.00175452
-0.112077	0.0140477
-0.172076	0.0069712
-0.122064	0.016403
-0.182113	0.00349807
-0.132075	0.0154616
-0.19199	0.00103925
-0.142101	0.0136961
-0.202024	0.00236733
-0.152051	0.0190077
-0.212038	0.0080475
-0.162008	0.0202591
-0.222018	0.00382168
-0.172041	0.014112
-0.232033	0.00215714
-0.182044	0.0154541
-0.242021	-0.00263953
-0.192067	0.0142292
-0.252039	0.00104341
-0.202077	0.0103466
-0.262046	-0.00451994
-0.212065	0.00890249
-0.272045	-0.00409918
-0.222003	0.00919737
-0.282094	-0.00719426
-0.232048	0.00478177
-0.292078	-0.00576977
-0.242017	0.00540933
-0.302062	-0.00367085
-0.251986	0.00894786
-0.312122	-0.00172541
-0.262061	0.00691396
-0.322102	-0.00242291
-0.272022	0.00931835
-0.332098	-0.00403529
-0.282082	0.00563616
-0.342089	-0.00374268
-0.292116	0.0106755
-0.352062	-0.0019564
-0.302104	0.00664177
-0.362134	-0.00513541
-0.312111	0.0124372
-0.372117	-0.00618033
-0.322118	0.00875883
-0.382094	-0.000840025
-0.332105	0.0121499
-0.392097	-0.00214089
-0.342047	0.0129022
-0.402092	0.00128763
-0.352081	0.00724286
-0.412069	-0.0069421
-0.362084	0.00656238
-0.422064	-0.00671943
-0.372064	0.00458897
-0.432048	-0.0078566
-0.382136	0.00777969
-0.442078	-0.00530288
-0.392089	0.00489519
-0.452092	-0.00593422
-0.402096	0.00562482
-0.462057	-0.00591267
-0.412095	0.00656616
-0.472079	-0.00405608
-0.422049	0.00645652
-0.482029	-0.000972342
-0.432044	0.00990432
-0.492089	-0.00274652
-0.442074	0.0107663
-0.502023	-0.00224107
-0.452069	0.0103277
-0.512099	-0.00555164
-0.462049	0.00589323
-0.522049	-0.00375326
-0.472106	0.00866054
-0.532055	-0.00531271
-0.482075	0.0138625
-0.542032	-0.00468099
-0.492039	0.0111972
-0.552046	-0.00376082
-0.502092	0.00738652
-0.562068	-0.00544541
-0.512034	0.00806701
-0.572102	-0.00703661
-0.522026	0.0104979
-0.58204	-0.00547867
-0.532052	0.00646786
-0.592032	-0.00913591
-0.54202	0.00704628
-0.601977	-0.00999143
-0.552069	0.00956408
-0.611977	-0.0103351
-0.562023	0.00895164
-0.622033	-0.0108152
-0.572045	0.00652079
-0.632013	-0.0108749
-0.582013	0.00985139
-0.64199	-0.00979182
-0.592039	0.00841859
-0.65197	-0.00759688
-0.602069	0.0064603
-0.662	-0.0132801
-0.612011	0.00928054
-0.672022	-0.00963115
-0.622006	0.00917847
-0.682006	-0.0116552
-0.632044	0.00997615
-0.692043	-0.0118416
-0.642016	0.0139192
-0.702023	-0.0109683
-0.652042	0.0174388
-0.712103	-9.14901e-05
-0.661988	0.0178093
-0.722048	-0.00736476
-0.672014	0.0169058
-0.732048	-0.00586693
-0.68196	0.0159569
-0.742119	-0.0025953
-0.691974	0.0148719
-0.752069	-0.00572856
-0.702111	0.0166449
-0.762041	-0.00742713
-0.712125	0.0154465
-0.772109	-0.00304896
-0.722121	0.0131858
-0.782032	-0.0060121
-0.732074	0.0190191
-0.792062	-0.00776738
-0.742058	0.0209395
-0.802061	-0.00863575
-0.752065	0.0138096
-0.812057	-0.00787172
-0.762072	0.0169398
-0.82206	-0.00645668
-0.772087	0.0175295
-0.832086	-0.00694852
-0.782093	0.0205086
-0.842035	-0.00360242
-0.792081	0.017023
-0.852019	-0.00529835
-0.80205	0.0180361
-0.86211	-0.00305879
-0.812038	0.0187091
-0.872064	-0.0047464
-0.822067	0.0167621
-0.882109	-0.00248189
-0.832063	0.0160627
-0.892054	-0.00553576
-0.842115	0.0158624
-0.902042	-0.00925159
-0.852054	0.0133937
-0.912003	-0.00950526
-0.862049	0.0119647
-0.922033	-0.00876278
-0.872067	0.0146904
-0.932024	-0.00313818
-0.882047	0.013991
-0.9421	-0.00699881
-0.892104	0.01573
-0.952042	-0.0077946
-0.902073	0.0153104
-0.962076	-0.00905123
-0.912072	0.0167016
-0.971995	-0.0074018
-0.922018	0.017057
-0.982043	-0.00722601
-0.932067	0.0195483
-0.992035	-0.00398538
-0.942104	0.0204292
-1.00206	-0.00329469
-0.952046	0.0168604
-1.01202	-0.00171974
-0.962011	0.0183348
-1.02203	-0.00429879
-0.971995	0.019915
-1.03208	0.0011761
-0.982028	0.0260394
-1.04205	0.000147814
-0.992062	0.0232003
-1.05203	0.0012812
-1.00204	0.0218204
-1.06204	-0.00246979
-1.01208	0.0189321
-1.07202	-0.00528436
-1.02202	0.0200662
-1.08202	-0.00233445
-1.032	0.0203082
-1.09205	-0.00455737
-1.04204	0.0259222
-1.10201	-0.00831063
-1.05203	0.0199339
-1.11205	-0.00526054
-1.06202	0.0225084
-1.1221	-0.00699049
-1.07199	0.0227617

File: CoPc(OMe)8_CNT_VFSWV_scans_71_70_C02.txt
Ewe/V	<I>/mA
-0.122041	0.013525
-0.07203	0.0136854
-0.132044	0.00855546
-0.0820636	0.0134211
-0.14204	0.0129718
-0.0920361	0.010632
-0.152008	0.0101687
-0.102009	0.0131731
-0.161996	0.0101708
-0.112042	0.0140988
-0.172026	0.0097945
-0.122053	0.0122003
-0.182044	0.00858378
-0.132006	0.0110743
-0.192021	0.00879189
-0.142028	0.0149641
-0.201997	0.0118928
-0.152009	0.0151214
-0.212015	0.0159928
-0.162031	0.0188754
-0.222011	0.0131397
-0.171988	0.0167815
-0.23201	0.0180023
-0.182025	0.0132894
-0.24204	0.0115936
-0.191994	0.0124726
-0.25202	0.00986379
-0.202028	0.0191283
-0.262015	0.0112766
-0.212038	0.017226
-0.272011	0.0114361
-0.221995	0.0152177
-0.28209	0.0117327
-0.232044	0.015306
-0.292105	0.00849805
-0.24199	0.0144123
-0.302134	0.0120913
-0.251993	0.0139246
-0.312061	0.00760367
-0.261981	0.0193799
-0.322068	0.0144397
-0.271976	0.0191149
-0.332048	0.0187745
-0.282113	0.020204
-0.342074	0.0128769
-0.292108	0.0192459
-0.352039	0.017246
-0.302069	0.0204731
-0.362057	0.0208458
-0.312095	0.0179975
-0.372098	0.0169165
-0.322098	0.0191986
-0.382071	0.0140141
-0.332056	0.0204116
-0.392032	0.0128436
-0.342127	0.016568
-0.402058	0.0144495
-0.352066	0.0189293
-0.412069	0.0175578
-0.362057	0.0187376
-0.421999	0.0157396
-0.372095	0.0174778
-0.43204	0.0150261
-0.382101	0.0137779
-0.442051	0.00838679
-0.392051	0.0118149
-0.452062	0.00639648
-0.402111	0.0137096
-0.462034	0.010632
-0.412038	0.0195433
-0.472079	0.0122842
-0.422087	0.0183831
-0.482017	0.00941217
-0.432098	0.0155717
-0.492066	0.0108338
-0.442062	0.010765
-0.502058	0.0101055
-0.452069	0.0138555
-0.512042	0.00856001
-0.462069	0.0198844
-0.522037	0.0301589
-0.472049	0.0358602
-0.531998	0.0279306
-0.482071	0.0408506
-0.542055	0.0360575
-0.492081	0.0352344
-0.551993	0.0305657
-0.502027	0.0322417
-0.562026	0.0279265
-0.512046	0.0311852
-0.57201	0.0281455
-0.522003	0.0314131
-0.581975	0.0278239
-0.532013	0.0328028
-0.591986	0.0280335
-0.542066	0.0336426
-0.602004	0.02942
-0.552023	0.0361806
-0.612026	0.024728
-0.561977	0.0314477
-0.622026	0.0251518
-0.572003	0.0336014
-0.632013	0.0277111
-0.581998	0.0407906
-0.64202	0.0261026
-0.592089	0.0365
-0.651951	0.0348607
-0.602042	0.035198
-0.662007	0.0178941
-0.612023	0.0282348
-0.671991	0.0219655
-0.622006	0.0281018
-0.682029	0.0198813
-0.632032	0.030193
-0.691955	0.0201127
-0.642001	0.031035
-0.702008	0.0185149
-0.652039	0.0283182
-0.712076	0.017208
-0.661988	0.0298954
-0.722098	0.0181591
-0.672018	0.0266673
-0.732071	0.0176554
-0.682029	0.0213738
-0.742043	0.012773
-0.691951	0.0231582
-0.752061	0.0120743
-0.702061	0.0241515
-0.762068	0.0125674
-0.712095	0.0223607
-0.77209	0.0104254
-0.722102	0.0232164
-0.782063	0.0142546
-0.73209	0.0198672
-0.792024	0.0102671
-0.74207	0.0232457
-0.802031	0.0121884
-0.752088	0.0241738
-0.812072	0.013239
-0.762099	0.0211328
-0.822071	0.0134795
-0.772087	0.0238526
-0.832082	0.0144536
-0.782093	0.02382
-0.842058	0.0129417
-0.792074	0.0229797
-0.852069	0.013632
-0.801973	0.0242006
-0.862034	0.0147813
-0.812087	0.0239479
-0.872098	0.0124026
-0.822044	0.0248198
-0.882059	0.0131167
-0.832059	0.0225951
-0.892073	0.0137984
-0.842093	0.025672
-0.902061	0.0141676
-0.852042	0.0263653
-0.912064	0.0105996
-0.862057	0.0231362
-0.922098	0.010017
-0.872128	0.0223716
-0.932074	0.0111428
-0.882063	0.0208331
-0.942028	0.0103366
-0.892131	0.0213626
-0.952019	0.00978843
-0.902065	0.0206018
-0.961984	0.00728531
-0.91206	0.0204498
-0.972025	0.0105225
-0.922098	0.015885
-0.982028	0.00757105
-0.932067	0.0220838
-0.992054	0.00839286
-0.942081	0.0184911
-1.002	0.0121583
-0.952023	0.0211715
-1.01207	0.00510914
-0.962076	0.0237995
-1.02201	0.0086963
-0.972071	0.0220123
-1.03204	0.0115039
-0.982043	0.0237315
-1.04201	0.0111709
-0.992058	0.0198019
-1.05203	0.00954998
-1.00201	0.0236415
-1.06205	0.00985165
-1.01201	0.0217103
-1.07195	0.00896232
-1.02204	0.0244269
-1.08204	0.00793897
-1.03198	0.0183244
-1.09204	0.00559843
-1.04207	0.0179593
-1.10198	0.00331252
-1.05203	0.0190428
-1.112	0.0019387
-1.06206	0.0149881
-1.12207	0.00468028
-1.07204	0.014889

File: CoPc(OMe)8_CNT_VFSWV_scans_72_71_C02.txt
Ewe/V	<I>/mA
-0.122049	0.0234144
-0.0720873	0.0277211
-0.132033	0.0244505
-0.0820864	0.0258894
-0.142086	0.0235605
-0.09204	0.0252417
-0.152009	0.0228303
-0.102035	0.0301112
-0.162061	0.018417
-0.112084	0.0220026
-0.172053	0.0199475
-0.122018	0.0246735
-0.182018	0.022165
-0.132025	0.0270667
-0.192005	0.0256001
-0.142036	0.025636
-0.202008	0.0237882
-0.152035	0.0259407
-0.212023	0.0216988
-0.161989	0.0277123
-0.221988	0.0251102
-0.172015	0.0275911
-0.232075	0.0216472
-0.182022	0.0308454
-0.242032	0.0205906
-0.192005	0.0268073
-0.251993	0.0267525
-0.202024	0.0276405
-0.262	0.0248296
-0.212011	0.0312548
-0.271976	0.0267811
-0.222015	0.0344958
-0.282082	0.0252179
-0.232041	0.0288483
-0.292055	0.0222533
-0.241975	0.0251414
-0.302127	0.0209686
-0.251955	0.0240185
-0.312084	0.0212936
-0.262023	0.0207992
-0.32211	0.0174776
-0.271992	0.0195889
-0.332067	0.0182236
-0.282109	0.0207503
-0.34207	0.015143
-0.292082	0.0190207
-0.352081	0.0129696
-0.302062	0.0176159
-0.362065	0.0168732
-0.312092	0.0174233
-0.372053	0.0167668
-0.322049	0.0197067
-0.382044	0.01641
-0.332079	0.0273449
-0.391994	0.0201457
-0.342097	0.0260786
-0.402046	0.0221344
-0.352066	0.0239938
-0.41203	0.0188395
-0.362015	0.0205706
-0.422056	0.0166009
-0.37206	0.020972
-0.432044	0.0171264
-0.382052	0.0200062
-0.442085	0.0160305
-0.392047	0.0208201
-0.452039	0.0200581
-0.402012	0.0247088
-0.462015	0.0197202
-0.412061	0.0229439
-0.472064	0.0199627
-0.422041	0.0243325
-0.482033	0.0211249
-0.432067	0.0232176
-0.49199	0.018849
-0.44202	0.0224095
-0.502054	0.0173334
-0.452012	0.021184
-0.511996	0.0163703
-0.462015	0.0230223
-0.521995	0.0157037
-0.472007	0.0241661
-0.532063	0.0162936
-0.481998	0.018905
-0.542039	0.0143113
-0.492043	0.0184208
-0.552023	0.0127834
-0.502031	0.0193399
-0.561973	0.0150022
-0.512076	0.0217784
-0.572029	0.0150558
-0.522018	0.020897
-0.582067	0.0159081
-0.532006	0.0219416
-0.592013	0.0184791
-0.542017	0.0229174
-0.602027	0.0158069
-0.552042	0.0227584
-0.612019	0.0147028
-0.562045	0.0215881
-0.622064	0.0127382
-0.572022	0.0196563
-0.631998	0.0126786
-0.582006	0.0211506
-0.642016	0.0114991
-0.592009	0.0146948
-0.65197	0.0129781
-0.602088	0.0151112
-0.661984	0.00999588
-0.611996	0.0191318
-0.671961	0.0127517
-0.62198	0.0180323
-0.682017	0.00884052
-0.632013	0.0168369
-0.692032	0.00626137
-0.64197	0.0147226
-0.701958	0.00843058
-0.651958	0.0189204
-0.712022	0.00896191
-0.661957	0.0146838
-0.722094	0.0124804
-0.672026	0.025444
-0.73209	0.00912338
-0.682021	0.0190112
-0.742131	0.0104239
-0.692005	0.0149574
-0.752054	0.00715971
-0.702084	0.0133828
-0.762053	0.00366836
-0.712095	0.0120369
-0.772117	0.00474565
-0.722094	0.0117333
-0.782029	0.0057251
-0.732074	0.0117238
-0.792085	0.00383629
-0.742058	0.00700014
-0.802073	-0.000741095
-0.75205	0.00740648
-0.812083	-0.0168786
-0.762068	-0.0113179
-0.822067	-0.020305
-0.772064	-0.0139978
-0.832067	-0.019172
-0.78207	-0.0110432
-0.842108	-0.0143851
-0.792016	-0.0106489
-0.852118	-0.0156533
-0.802057	-0.0129032
-0.862114	-0.0174528
-0.812091	-0.0104582
-0.872113	-0.014962
-0.822086	-0.00800021
-0.88207	-0.0168734
-0.832086	-0.00219622
-0.892093	-0.0117533
-0.842115	-0.00377217
-0.902073	-0.0172201
-0.852126	-0.00599665
-0.912106	-0.0145327
-0.862003	-0.00573906
-0.922067	-0.0129856
-0.872048	-0.00517505
-0.932063	-0.0108506
-0.882097	-0.0072318
-0.942089	-0.0135498
-0.892112	-0.00357612
-0.952042	-0.0159802
-0.902027	-0.00405502
-0.962057	-0.0129849
-0.912064	-0.0016307
-0.972079	-0.00522255
-0.922044	-0.00391711
-0.982051	-0.0119577
-0.932108	-0.00446953
-0.992104	-0.0114944
-0.942058	-0.00180262
-1.00205	-0.0131355
-0.952031	-0.00712048
-1.01206	-0.0130819
-0.962091	-0.0043111
-1.0221	-0.0177268
-0.972014	-0.00875455
-1.03202	-0.01386
-0.982063	-0.0114312
-1.04205	-0.0133145
-0.992066	-0.00877469
-1.05203	-0.0187142
-1.00204	-0.0099859
-1.06204	-0.0228387
-1.01205	-0.0115387
-1.072	-0.0205941
-1.02203	-0.00815636
-1.08205	-0.0199176
-1.03202	-0.00483521
-1.09206	-0.017173
-1.04202	-0.00599361
-1.10208	-0.015863
-1.05205	-0.00715163
-1.112	-0.0160028
-1.06207	-0.0109154
-1.1221	-0.0225973
-1.07203	-0.00781556