Folder: ElectrochemLabUtils/VFSWV_data_prep/Example_data/CoPc_VFSWV_txt_data (part 6)

File: CoPc_CNT_VFSWV_scans_31_30_C02.txt
Ewe/V	<I>/mA
-0.122322	-0.000869891
-0.072341	0.0436738
-0.132336	-0.0160441
-0.0823592	0.0435211
-0.142332	-0.0145168
-0.0923699	0.041001
-0.152319	-0.0170369
-0.102342	0.0471103
-0.162448	-0.0198624
-0.112361	0.0413065
-0.172383	-0.021237
-0.122341	0.0403901
-0.182386	-0.0190988
-0.132348	0.0410774
-0.192412	-0.0271172
-0.142313	0.038481
-0.202384	-0.0249789
-0.152361	0.0398555
-0.212372	-0.0309354
-0.162406	0.0389392
-0.222432	-0.0285681
-0.172448	0.0358845
-0.232412	-0.0287972
-0.182409	0.0364191
-0.242351	-0.0371211
-0.192412	0.0374882
-0.252415	-0.0335319
-0.202384	0.0458884
-0.262395	-0.0400993
-0.21238	0.0364955
-0.272371	-0.0432303
-0.222406	0.0394737
-0.282363	-0.0395648
-0.232451	0.0443611
-0.2924	-0.0438412
-0.242408	0.0380991
-0.302411	-0.0465904
-0.252346	0.044972
-0.312399	-0.0510196
-0.26238	0.0419938
-0.322371	-0.0541506
-0.272386	0.0447429
-0.332344	-0.0559834
-0.282393	0.0477976
-0.342331	-0.0625508
-0.292377	0.0462703
-0.352342	-0.0588089
-0.302388	0.0426811
-0.362372	-0.0694238
-0.312406	0.0466521
-0.372367	-0.0787404
-0.322325	0.045583
-0.382298	-0.0835514
-0.332328	0.0493249
-0.392366	-0.0908061
-0.342366	0.0542887
-0.402353	-0.100199
-0.352315	0.0563505
-0.412368	-0.129371
-0.36238	0.0661253
-0.422314	-0.159077
-0.372329	0.0725401
-0.432328	-0.205049
-0.382344	0.0803294
-0.442328	-0.263927
-0.392335	0.0955261
-0.452311	-0.354573
-0.402327	0.113625
-0.462315	-0.473169
-0.412364	0.162117
-0.472287	-0.618569
-0.422363	0.231228
-0.482359	-0.795738
-0.432298	0.326456
-0.492347	-0.983903
-0.442381	0.459943
-0.502346	-1.19635
-0.452338	0.617638
-0.512314	-1.41453
-0.462318	0.813058
-0.522302	-1.62782
-0.472348	1.00168
-0.532298	-1.82591
-0.482336	1.1832
-0.542301	-1.9875
-0.492339	1.34853
-0.552296	-2.12114
-0.502315	1.47706
-0.562318	-2.2082
-0.512276	1.57129
-0.572272	-2.2463
-0.522295	1.62544
-0.582397	-2.21851
-0.532298	1.65255
-0.592453	-2.15474
-0.542285	1.62032
-0.602391	-2.02484
-0.552288	1.56075
-0.612333	-1.85875
-0.562257	1.47248
-0.622405	-1.67509
-0.572283	1.34915
-0.632382	-1.45836
-0.582382	1.21146
-0.642388	-1.25004
-0.592388	1.06904
-0.652395	-1.07768
-0.602403	0.911646
-0.662368	-0.928461
-0.61241	0.782665
-0.672401	-0.803756
-0.62239	0.66025
-0.682362	-0.711201
-0.632404	0.548604
-0.692331	-0.648734
-0.6424	0.454216
-0.702311	-0.605587
-0.652407	0.387701
-0.712307	-0.569924
-0.662326	0.330809
-0.722344	-0.546786
-0.67234	0.291328
-0.732343	-0.533804
-0.682397	0.255665
-0.742312	-0.524945
-0.692346	0.237108
-0.752319	-0.522425
-0.702361	0.220613
-0.762314	-0.506083
-0.712333	0.215191
-0.772352	-0.509137
-0.722317	0.20282
-0.782309	-0.508756
-0.732316	0.188616
-0.792312	-0.510207
-0.742342	0.17907
-0.80238	-0.51349
-0.752319	0.180368
-0.812253	-0.511657
-0.762326	0.172197
-0.822344	-0.513414
-0.772317	0.17319
-0.832305	-0.503715
-0.782378	0.168074
-0.842293	-0.494093
-0.792342	0.164943
-0.852307	-0.489511
-0.802342	0.170059
-0.862333	-0.470114
-0.812303	0.151731
-0.872336	-0.455834
-0.822271	0.153029
-0.882362	-0.446594
-0.832309	0.139513
-0.892304	-0.436208
-0.8423	0.12844
-0.902322	-0.418949
-0.852353	0.126607
-0.912318	-0.402455
-0.86236	0.112479
-0.922287	-0.38237
-0.872386	0.105759
-0.932286	-0.374657
-0.882313	0.100948
-0.942331	-0.366944
-0.892354	0.0991153
-0.952326	-0.355948
-0.90233	0.0916315
-0.962268	-0.350144
-0.912303	0.088195
-0.972256	-0.340064
-0.922294	0.0855222
-0.98227	-0.337238
-0.93232	0.0799475
-0.992357	-0.331893
-0.942304	0.0848349
-1.00239	-0.334718
-0.952265	0.0831549
-1.01243	-0.334565
-0.962291	0.084224
-1.02239	-0.336933
-0.972241	0.0882714
-1.03243	-0.3477
-0.98227	0.089646
-1.04243	-0.344493
-0.992403	0.0888823
-1.05236	-0.346249
-1.00238	0.0925479
-1.06235	-0.35022
-1.0124	0.0973589
-1.07234	-0.358926
-1.02238	0.0994971
-1.08242	-0.372137
-1.03234	0.100948
-1.09232	-0.371985
-1.04241	0.106065
-1.10237	-0.382065
-1.0524	0.109501
-1.11231	-0.404211
-1.06236	0.110188
-1.12237	-0.417193
-1.07242	0.114388

File: CoPc_CNT_VFSWV_scans_32_31_C02.txt
Ewe/V	<I>/mA
-0.122345	-0.0168685
-0.0723333	0.0343445
-0.132294	-0.0277026
-0.0823477	0.030908
-0.142316	-0.0281481
-0.0923241	0.0281716
-0.152323	-0.0254117
-0.102354	0.030908
-0.162426	-0.023248
-0.112372	0.0339627
-0.172432	-0.0243935
-0.122322	0.0253079
-0.182393	-0.0362938
-0.132325	0.0252442
-0.192412	-0.0341937
-0.142324	0.0240988
-0.202415	-0.0325391
-0.152312	0.0291262
-0.212387	-0.0434212
-0.162433	0.0300171
-0.222432	-0.0312027
-0.172413	0.0260079
-0.232401	-0.0462849
-0.182447	0.0246079
-0.242438	-0.0455849
-0.192423	0.0233351
-0.252434	-0.0457758
-0.202369	0.0253715
-0.262361	-0.0485123
-0.21238	0.0211714
-0.272406	-0.0501669
-0.222432	0.0233351
-0.282405	-0.0507396
-0.232359	0.0298898
-0.292331	-0.0536033
-0.242332	0.0210441
-0.302392	-0.0590762
-0.252396	0.0265806
-0.312383	-0.0619399
-0.262383	0.0241624
-0.322383	-0.0675401
-0.272402	0.0287443
-0.332378	-0.0616854
-0.28234	0.0321808
-0.34237	-0.0706583
-0.292393	0.0326899
-0.352342	-0.0742857
-0.302354	0.0297626
-0.362311	-0.0784858
-0.312349	0.0286807
-0.372306	-0.0863769
-0.322375	0.0367627
-0.382367	-0.0919134
-0.332336	0.0320535
-0.392362	-0.095159
-0.342389	0.0273443
-0.402376	-0.114696
-0.352354	0.0356809
-0.412326	-0.132069
-0.362341	0.0447175
-0.422329	-0.160006
-0.372356	0.0536268
-0.432344	-0.197044
-0.382313	0.0571269
-0.442347	-0.258072
-0.39237	0.0735455
-0.452353	-0.339147
-0.402353	0.0945461
-0.462315	-0.44275
-0.412338	0.134829
-0.472352	-0.569454
-0.422348	0.195285
-0.482344	-0.730203
-0.432382	0.285715
-0.492347	-0.922072
-0.442358	0.410636
-0.502308	-1.11878
-0.452331	0.552295
-0.512326	-1.33203
-0.462307	0.728954
-0.522272	-1.53338
-0.472291	0.91255
-0.532279	-1.72251
-0.482363	1.09188
-0.542274	-1.88562
-0.492289	1.24964
-0.5523	-2.00863
-0.502334	1.38602
-0.562292	-2.09505
-0.512314	1.4753
-0.572344	-2.12623
-0.522283	1.53289
-0.582424	-2.11051
-0.532343	1.54868
-0.592385	-2.03001
-0.542343	1.53264
-0.602391	-1.90649
-0.552315	1.46779
-0.612391	-1.74504
-0.562314	1.38118
-0.622394	-1.55737
-0.572272	1.26059
-0.632408	-1.36156
-0.582374	1.12746
-0.642362	-1.16835
-0.592385	0.983506
-0.652395	-0.999138
-0.602403	0.840702
-0.662379	-0.860598
-0.612391	0.717308
-0.672382	-0.750122
-0.622386	0.59665
-0.682427	-0.668474
-0.632389	0.495402
-0.692384	-0.614127
-0.642404	0.412036
-0.702368	-0.57009
-0.65238	0.344962
-0.712387	-0.538589
-0.662394	0.301115
-0.722321	-0.530953
-0.672401	0.261278
-0.732339	-0.512243
-0.682374	0.232832
-0.742304	-0.505434
-0.692369	0.212213
-0.752353	-0.497097
-0.702342	0.195922
-0.76231	-0.493851
-0.712371	0.184212
-0.772378	-0.492897
-0.722352	0.180267
-0.782282	-0.49207
-0.732332	0.17053
-0.792323	-0.490924
-0.742396	0.167094
-0.802288	-0.500534
-0.752334	0.164484
-0.812333	-0.494679
-0.76231	0.156466
-0.822302	-0.491179
-0.772375	0.151566
-0.832328	-0.485324
-0.782332	0.147684
-0.842327	-0.481633
-0.792354	0.141638
-0.8523	-0.468651
-0.802307	0.141002
-0.862306	-0.456878
-0.81236	0.130502
-0.872313	-0.453569
-0.822344	0.12802
-0.882316	-0.434923
-0.832343	0.116565
-0.892335	-0.418631
-0.842358	0.11701
-0.9023	-0.407622
-0.852319	0.105174
-0.912348	-0.395276
-0.862368	0.103519
-0.922244	-0.36963
-0.872351	0.0934006
-0.932301	-0.366066
-0.88229	0.0843004
-0.942296	-0.357475
-0.892296	0.0804821
-0.952261	-0.348057
-0.902292	0.0684545
-0.96231	-0.339529
-0.912276	0.0677545
-0.97229	-0.328393
-0.922298	0.0751365
-0.982324	-0.327183
-0.932324	0.0667999
-0.992377	-0.324383
-0.942289	0.0669908
-1.00237	-0.325211
-0.952315	0.0661635
-1.01233	-0.326229
-0.96228	0.0706182
-1.02234	-0.330556
-0.972286	0.065909
-1.03234	-0.337302
-0.982305	0.0741183
-1.04238	-0.336475
-0.992396	0.0706818
-1.05234	-0.347611
-1.00237	0.0755183
-1.06239	-0.343475
-1.01239	0.0794002
-1.07235	-0.346275
-1.02234	0.0782548
-1.08239	-0.352575
-1.03234	0.0853822
-1.09238	-0.36333
-1.0424	0.0918097
-1.10234	-0.368675
-1.05236	0.0918733
-1.11229	-0.384521
-1.06233	0.0918097
-1.12235	-0.40234
-1.07231	0.0945461

File: CoPc_CNT_VFSWV_scans_33_32_C02.txt
Ewe/V	<I>/mA
-0.122329	0.00501027
-0.0723829	0.0405174
-0.132378	-0.00695662
-0.082321	0.03689
-0.142355	-0.0173933
-0.0923852	0.0353627
-0.152296	-0.016566
-0.102327	0.0296353
-0.162403	-0.0153568
-0.112384	0.0328808
-0.172417	-0.0151659
-0.122314	0.041472
-0.182405	-0.00873848
-0.132348	0.0416629
-0.1924	-0.0109658
-0.142362	0.0367627
-0.20238	-0.0207024
-0.152312	0.0338354
-0.212399	-0.0205115
-0.162418	0.0323717
-0.222409	-0.0226752
-0.172425	0.0374628
-0.232428	-0.0205752
-0.182439	0.0403901
-0.242416	-0.020957
-0.192393	0.03759
-0.25243	-0.0280208
-0.202442	0.0386082
-0.262376	-0.0340028
-0.212437	0.0342809
-0.272386	-0.036612
-0.22244	0.0399446
-0.282351	-0.0359756
-0.232447	0.03829
-0.292385	-0.037312
-0.242442	0.0342172
-0.302384	-0.0387757
-0.252388	0.0370173
-0.312364	-0.0415121
-0.262403	0.03619
-0.322409	-0.0504851
-0.272379	0.0432538
-0.332374	-0.049085
-0.28239	0.0379082
-0.342373	-0.0562125
-0.292385	0.0424902
-0.352354	-0.059458
-0.302388	0.0418538
-0.362399	-0.0611126
-0.312357	0.0422993
-0.372406	-0.06544
-0.322371	0.0412174
-0.382363	-0.0722493
-0.332397	0.0402628
-0.39237	-0.0754312
-0.342362	0.0445266
-0.402384	-0.0947135
-0.352369	0.0433175
-0.412334	-0.102541
-0.362364	0.0510177
-0.422379	-0.132642
-0.372329	0.055536
-0.432336	-0.166243
-0.382405	0.0648908
-0.44232	-0.214099
-0.392385	0.0738001
-0.452315	-0.284164
-0.40235	0.0914278
-0.462315	-0.37873
-0.412353	0.127638
-0.472306	-0.501997
-0.422337	0.168112
-0.482363	-0.650401
-0.432363	0.249059
-0.492274	-0.819615
-0.442285	0.348207
-0.502334	-1.00429
-0.4523	0.484075
-0.512295	-1.201
-0.462349	0.648134
-0.522283	-1.38618
-0.47231	0.824157
-0.532305	-1.56914
-0.482336	0.988406
-0.542301	-1.71787
-0.492266	1.14177
-0.552342	-1.84298
-0.502338	1.27109
-0.562288	-1.91273
-0.512269	1.37291
-0.572321	-1.93856
-0.522317	1.42827
-0.582362	-1.91801
-0.532305	1.44966
-0.592385	-1.84069
-0.542255	1.42649
-0.602361	-1.72684
-0.5523	1.37615
-0.612379	-1.58003
-0.562303	1.28184
-0.622398	-1.39834
-0.572302	1.16761
-0.632393	-1.2185
-0.582424	1.0383
-0.642385	-1.03828
-0.592423	0.908604
-0.652342	-0.881471
-0.602418	0.771655
-0.662379	-0.762659
-0.612379	0.65157
-0.672378	-0.674584
-0.622378	0.545485
-0.682408	-0.602418
-0.632393	0.455438
-0.692358	-0.553035
-0.642362	0.38079
-0.702361	-0.518989
-0.652349	0.323007
-0.712318	-0.493151
-0.662352	0.275533
-0.722352	-0.473933
-0.672378	0.242314
-0.732316	-0.464896
-0.682385	0.213613
-0.742384	-0.457387
-0.69235	0.201076
-0.752334	-0.450959
-0.702376	0.187967
-0.762368	-0.45115
-0.712368	0.177212
-0.772367	-0.455032
-0.722367	0.169066
-0.782316	-0.453123
-0.732378	0.162193
-0.792377	-0.448668
-0.742362	0.160412
-0.802303	-0.451405
-0.752372	0.154493
-0.812314	-0.448223
-0.762329	0.156657
-0.822317	-0.446823
-0.77234	0.148575
-0.832328	-0.446887
-0.78242	0.147238
-0.842361	-0.433968
-0.792346	0.141702
-0.852384	-0.436705
-0.802323	0.135402
-0.862322	-0.420095
-0.812341	0.132156
-0.872348	-0.415004
-0.822355	0.11981
-0.882339	-0.396613
-0.832305	0.116438
-0.892304	-0.382803
-0.842319	0.11281
-0.90233	-0.371603
-0.852334	0.0974098
-0.912329	-0.355884
-0.862348	0.0969007
-0.922248	-0.350539
-0.872325	0.0876732
-0.932324	-0.337366
-0.882332	0.0855731
-0.942327	-0.326611
-0.892342	0.0839186
-0.952307	-0.31681
-0.902288	0.0776184
-0.962291	-0.308856
-0.912299	0.0697909
-0.972302	-0.302619
-0.922302	0.071
-0.982312	-0.298101
-0.932335	0.0719546
-0.992392	-0.291164
-0.942293	0.0708727
-1.00244	-0.294219
-0.952319	0.0722728
-1.01237	-0.298355
-0.962341	0.0627271
-1.02238	-0.302555
-0.972279	0.0687727
-1.03244	-0.301792
-0.982301	0.0748183
-1.04245	-0.306692
-0.992357	0.0768547
-1.05233	-0.303956
-1.00233	0.0805457
-1.06235	-0.309492
-1.01242	0.0819458
-1.07237	-0.314456
-1.02237	0.0824549
-1.08233	-0.324511
-1.03238	0.0854459
-1.0923	-0.328774
-1.04236	0.0886914
-1.10234	-0.333165
-1.05235	0.0916824
-1.11237	-0.347802
-1.06237	0.0911097
-1.12239	-0.361675
-1.07235	0.100974

File: CoPc_CNT_VFSWV_scans_34_33_C02.txt
Ewe/V	<I>/mA
-0.122368	-0.00743734
-0.0723447	0.0423629
-0.132355	-0.00390199
-0.0823706	0.0409628
-0.142316	-0.0102658
-0.0923814	0.032499
-0.152327	-0.0152296
-0.102335	0.0350445
-0.162456	-0.0110931
-0.112345	0.0333899
-0.172482	-0.0145932
-0.122383	0.0387992
-0.182435	-0.0163114
-0.132371	0.0385446
-0.192435	-0.0184751
-0.142316	0.0367627
-0.202415	-0.0171387
-0.152308	0.0312262
-0.212445	-0.0176478
-0.162471	0.0435084
-0.22239	-0.0235025
-0.172413	0.0335172
-0.232409	-0.017966
-0.182416	0.0376537
-0.242423	-0.0258571
-0.192438	0.03689
-0.25243	-0.0238843
-0.202411	0.0384173
-0.262391	-0.0229298
-0.212414	0.0338354
-0.272436	-0.0348937
-0.222398	0.0356809
-0.282378	-0.0347028
-0.232432	0.0336445
-0.292477	-0.0359756
-0.242431	0.03689
-0.302338	-0.036421
-0.252434	0.0412174
-0.312383	-0.0420848
-0.26241	0.0411538
-0.322386	-0.0402393
-0.272367	0.0368264
-0.332374	-0.048385
-0.282428	0.0452902
-0.342392	-0.0443758
-0.292385	0.03829
-0.352354	-0.0485123
-0.302384	0.0393719
-0.362364	-0.0550034
-0.312345	0.0408992
-0.372375	-0.0547488
-0.322386	0.0369536
-0.382351	-0.0591398
-0.332401	0.0480267
-0.392412	-0.0716765
-0.342423	0.0480267
-0.40235	-0.0814768
-0.352373	0.0512722
-0.41236	-0.0909589
-0.362372	0.0527359
-0.422348	-0.116414
-0.372406	0.0536905
-0.432363	-0.148297
-0.382374	0.0637453
-0.44237	-0.19138
-0.392362	0.0722728
-0.45238	-0.253172
-0.402418	0.0864641
-0.462337	-0.336538
-0.412326	0.109947
-0.472348	-0.445105
-0.422352	0.150484
-0.482294	-0.580145
-0.432332	0.209667
-0.492343	-0.74064
-0.442354	0.299015
-0.502361	-0.899481
-0.452369	0.42871
-0.512372	-1.09148
-0.462372	0.570941
-0.522333	-1.26623
-0.472314	0.732836
-0.532309	-1.42806
-0.482378	0.894031
-0.54232	-1.57538
-0.49232	1.04326
-0.552361	-1.68662
-0.502319	1.16227
-0.562284	-1.75783
-0.512345	1.25448
-0.572371	-1.78392
-0.52234	1.31894
-0.582389	-1.76731
-0.532347	1.3332
-0.592354	-1.69597
-0.542343	1.31481
-0.602411	-1.57404
-0.552277	1.26485
-0.612387	-1.42799
-0.562311	1.17467
-0.622394	-1.2689
-0.57231	1.07317
-0.632378	-1.08963
-0.582404	0.951942
-0.6424	-0.9327
-0.592381	0.825684
-0.652342	-0.800142
-0.602372	0.709035
-0.662379	-0.685657
-0.612398	0.591369
-0.672386	-0.602863
-0.622371	0.492157
-0.682366	-0.54508
-0.632439	0.404464
-0.692407	-0.504797
-0.642339	0.33828
-0.702372	-0.479469
-0.652414	0.283488
-0.712349	-0.454014
-0.662364	0.253769
-0.722382	-0.437532
-0.672359	0.226595
-0.732378	-0.431232
-0.682389	0.195731
-0.742335	-0.426968
-0.692369	0.181412
-0.75233	-0.42054
-0.702395	0.172312
-0.762333	-0.423086
-0.712402	0.165439
-0.772371	-0.422831
-0.722363	0.161684
-0.782355	-0.426013
-0.732397	0.148702
-0.792346	-0.432504
-0.742339	0.151439
-0.802345	-0.424804
-0.752353	0.146602
-0.812337	-0.416977
-0.762318	0.147938
-0.822359	-0.411949
-0.772359	0.135784
-0.832355	-0.415258
-0.782324	0.138265
-0.842388	-0.40514
-0.792304	0.139347
-0.85238	-0.403358
-0.802338	0.130756
-0.862333	-0.385603
-0.812322	0.133493
-0.872363	-0.381785
-0.822336	0.117456
-0.882335	-0.362948
-0.832351	0.110965
-0.892365	-0.355502
-0.842331	0.107974
-0.902265	-0.344302
-0.852338	0.100655
-0.912306	-0.340356
-0.862341	0.094737
-0.922336	-0.320692
-0.872359	0.0838549
-0.932374	-0.310319
-0.882305	0.082073
-0.942338	-0.300774
-0.892304	0.0787002
-0.952353	-0.290082
-0.902357	0.0766638
-0.962299	-0.284673
-0.912329	0.0636816
-0.972271	-0.277355
-0.922317	0.0678818
-0.982316	-0.278882
-0.932374	0.0635544
-0.992441	-0.274555
-0.942361	0.0625998
-1.00245	-0.277227
-0.952307	0.0680727
-1.01237	-0.267555
-0.962283	0.0683909
-1.02245	-0.274809
-0.972325	0.0722728
-1.03236	-0.276337
-0.982309	0.0722728
-1.04242	-0.280664
-0.992407	0.0722091
-1.05241	-0.278564
-1.00239	0.0705546
-1.06238	-0.28671
-1.01236	0.0750092
-1.07233	-0.29861
-1.02236	0.0774275
-1.08239	-0.30211
-1.03239	0.0787002
-1.09238	-0.305992
-1.04242	0.079973
-1.10238	-0.315983
-1.0524	0.0876096
-1.11241	-0.328456
-1.06235	0.0905369
-1.12237	-0.333865
-1.07241	0.0945461

File: CoPc_CNT_VFSWV_scans_35_34_C02.txt
Ewe/V	<I>/mA
-0.122341	0.0105468
-0.0723524	0.0476448
-0.132332	0.00214363
-0.0823477	0.0498085
-0.142332	0.00456187
-0.092347	0.0460539
-0.152323	-0.00148374
-0.102377	0.0477085
-0.162445	-0.00288378
-0.112315	0.0422356
-0.172432	-0.0067657
-0.122348	0.0386082
-0.182432	-0.0035838
-0.132344	0.0370173
-0.192442	-0.007593
-0.142324	0.044272
-0.2024	-0.0140204
-0.152346	0.0394992
-0.212353	-0.0122386
-0.16246	0.0439538
-0.222474	-0.0139568
-0.172383	0.0426174
-0.232424	-0.0166932
-0.18239	0.0406447
-0.242408	-0.0200661
-0.192381	0.0403901
-0.252396	-0.023948
-0.202461	0.045163
-0.262422	-0.0147841
-0.212445	0.0405174
-0.272417	-0.0210206
-0.222409	0.040581
-0.282397	-0.0222298
-0.232413	0.0401356
-0.292396	-0.0308209
-0.242412	0.0420447
-0.302377	-0.0348301
-0.252434	0.0423629
-0.312414	-0.0323482
-0.262399	0.0450993
-0.32244	-0.0266844
-0.272383	0.0364445
-0.332382	-0.0368029
-0.28242	0.0449084
-0.342404	-0.0419576
-0.292435	0.0439538
-0.352346	-0.0408757
-0.302422	0.0505086
-0.362345	-0.0384575
-0.312429	0.0463721
-0.372364	-0.0461577
-0.322386	0.0447175
-0.382389	-0.0494669
-0.332374	0.0503813
-0.392415	-0.0553852
-0.342396	0.0561087
-0.402354	-0.0637854
-0.352422	0.0442084
-0.412338	-0.0833859
-0.36241	0.0487267
-0.422295	-0.0994227
-0.372325	0.0604361
-0.432328	-0.12106
-0.382363	0.0701091
-0.44235	-0.163761
-0.392354	0.0749456
-0.452319	-0.222435
-0.40238	0.0790184
-0.462356	-0.292437
-0.412376	0.0990008
-0.472318	-0.388021
-0.422352	0.136802
-0.482355	-0.512879
-0.432355	0.191721
-0.492324	-0.65581
-0.442369	0.269869
-0.502334	-0.815542
-0.452357	0.364626
-0.512326	-0.986537
-0.462357	0.502275
-0.522356	-1.15168
-0.47231	0.657488
-0.532313	-1.30823
-0.482344	0.815438
-0.542343	-1.44664
-0.492362	0.952387
-0.55233	-1.5491
-0.502304	1.06159
-0.562284	-1.61299
-0.512364	1.15654
-0.572302	-1.64169
-0.522337	1.21515
-0.582401	-1.61108
-0.53234	1.23589
-0.592438	-1.54369
-0.542335	1.21528
-0.602411	-1.42978
-0.552369	1.17137
-0.612391	-1.29283
-0.562295	1.09322
-0.622398	-1.13074
-0.572306	0.99197
-0.632412	-0.974128
-0.582359	0.880413
-0.6424	-0.833679
-0.592442	0.760837
-0.652372	-0.711366
-0.602399	0.643361
-0.662425	-0.617818
-0.612372	0.543895
-0.67239	-0.541453
-0.622428	0.453019
-0.682423	-0.491306
-0.632439	0.373217
-0.692381	-0.461842
-0.6424	0.310852
-0.70241	-0.442305
-0.652395	0.265478
-0.712383	-0.413031
-0.662375	0.228122
-0.722386	-0.409849
-0.672424	0.200694
-0.73237	-0.401513
-0.682355	0.182685
-0.742323	-0.394894
-0.692392	0.17123
-0.752365	-0.392222
-0.702403	0.159202
-0.762345	-0.39674
-0.712383	0.158248
-0.77234	-0.389612
-0.722382	0.152457
-0.78232	-0.394067
-0.732324	0.144438
-0.792335	-0.392031
-0.742335	0.144057
-0.802326	-0.393176
-0.752307	0.134065
-0.812329	-0.396994
-0.762341	0.138456
-0.822355	-0.385158
-0.772355	0.127511
-0.832332	-0.384967
-0.782343	0.130947
-0.842361	-0.38223
-0.79235	0.124647
-0.852364	-0.377457
-0.802296	0.118792
-0.862303	-0.365175
-0.812322	0.117583
-0.872378	-0.360148
-0.822344	0.100974
-0.882385	-0.347102
-0.832339	0.104219
-0.892335	-0.339911
-0.842338	0.0976007
-0.902334	-0.323301
-0.852277	0.0928915
-0.912276	-0.309301
-0.862345	0.0894551
-0.922271	-0.299501
-0.872348	0.0807366
-0.932339	-0.287982
-0.882324	0.0708091
-0.942335	-0.281619
-0.892296	0.0706182
-0.952345	-0.269718
-0.902357	0.0679454
-0.96228	-0.272582
-0.91231	0.063618
-0.97226	-0.263864
-0.922363	0.0614543
-0.982297	-0.260745
-0.932286	0.0622816
-0.992388	-0.260682
-0.942277	0.0649544
-1.00235	-0.263545
-0.952284	0.0701091
-1.01238	-0.255781
-0.962333	0.0635544
-1.02241	-0.2547
-0.972306	0.0669272
-1.0324	-0.261063
-0.982309	0.0650817
-1.04242	-0.265264
-0.992392	0.0736092
-1.05239	-0.265709
-1.00233	0.0643817
-1.06232	-0.262463
-1.01237	0.0708091
-1.07235	-0.268191
-1.0224	0.0775547
-1.08239	-0.2764
-1.0324	0.078382
-1.09232	-0.286582
-1.04239	0.0738001
-1.10238	-0.293519
-1.05238	0.0778093
-1.11236	-0.301537
-1.06238	0.0865277
-1.12237	-0.310192
-1.07241	0.0881823

File: CoPc_CNT_VFSWV_scans_36_35_C02.txt
Ewe/V	<I>/mA
-0.122348	0.00657577
-0.0723829	0.0439538
-0.132355	-0.00269287
-0.0823783	0.0410901
-0.14232	-0.0049202
-0.0923547	0.0352354
-0.152373	-0.0107749
-0.102342	0.033899
-0.162452	-0.00822938
-0.112407	0.0367627
-0.172406	-0.007593
-0.122375	0.0401992
-0.182424	-0.0109022
-0.132363	0.0345354
-0.192461	-0.00975669
-0.14232	0.0392446
-0.202415	-0.00848393
-0.152338	0.0356173
-0.212467	-0.0193024
-0.162529	0.0319262
-0.222459	-0.0203206
-0.172432	0.0339627
-0.232393	-0.0194297
-0.182474	0.0350445
-0.242465	-0.0137023
-0.192446	0.0407083
-0.252377	-0.0168842
-0.202468	0.0400083
-0.262429	-0.0136386
-0.212452	0.0419174
-0.272421	-0.0198115
-0.22244	0.0369536
-0.282359	-0.0275117
-0.232428	0.038481
-0.292408	-0.0226752
-0.242408	0.03479
-0.302407	-0.026939
-0.252407	0.0370809
-0.312422	-0.0336846
-0.262437	0.0393719
-0.322409	-0.0352756
-0.27244	0.0335808
-0.332424	-0.0404302
-0.28242	0.0371446
-0.342427	-0.0378847
-0.292377	0.0379082
-0.352365	-0.0473032
-0.30243	0.0392446
-0.362383	-0.0495305
-0.312403	0.0378446
-0.37236	-0.0529033
-0.32236	0.0373991
-0.382401	-0.0549397
-0.332363	0.0357445
-0.392431	-0.0665219
-0.3424	0.0408356
-0.402376	-0.0708492
-0.352388	0.0456721
-0.412395	-0.0824314
-0.36238	0.0466903
-0.422356	-0.0967499
-0.372367	0.0511449
-0.432408	-0.114187
-0.382355	0.0537541
-0.442358	-0.152624
-0.392415	0.0555996
-0.452361	-0.205189
-0.40243	0.0736092
-0.46236	-0.268636
-0.41241	0.0846186
-0.472402	-0.35773
-0.422371	0.117392
-0.482359	-0.467378
-0.432366	0.161748
-0.492389	-0.594336
-0.442373	0.230541
-0.50235	-0.744013
-0.452376	0.327398
-0.512379	-0.896426
-0.462383	0.442583
-0.522325	-1.05495
-0.47236	0.575268
-0.532336	-1.19934
-0.482294	0.723863
-0.542362	-1.32999
-0.492312	0.849294
-0.552323	-1.42672
-0.502357	0.967088
-0.562314	-1.49303
-0.512368	1.05911
-0.572375	-1.51282
-0.522321	1.11715
-0.582401	-1.48718
-0.532275	1.13458
-0.592411	-1.41902
-0.54235	1.12427
-0.602456	-1.31039
-0.552319	1.07184
-0.612368	-1.17923
-0.562318	0.997889
-0.622405	-1.03159
-0.572344	0.902559
-0.632401	-0.88898
-0.582389	0.798256
-0.6424	-0.759731
-0.592411	0.688035
-0.652441	-0.651292
-0.602418	0.583541
-0.662368	-0.569581
-0.61241	0.485602
-0.672355	-0.498624
-0.62244	0.404591
-0.682412	-0.453123
-0.63242	0.340698
-0.692411	-0.43155
-0.642396	0.279924
-0.702372	-0.407431
-0.652414	0.229968
-0.71236	-0.394958
-0.662452	0.20324
-0.722401	-0.382867
-0.672386	0.18784
-0.732435	-0.375294
-0.682397	0.167984
-0.742373	-0.374848
-0.692411	0.157293
-0.752407	-0.370585
-0.702395	0.149911
-0.762303	-0.369439
-0.712329	0.140111
-0.772417	-0.374785
-0.72234	0.137247
-0.782362	-0.369821
-0.732358	0.131011
-0.792342	-0.372048
-0.742312	0.134447
-0.802361	-0.373003
-0.752414	0.129993
-0.812379	-0.372812
-0.76241	0.128083
-0.822332	-0.368166
-0.772344	0.12522
-0.83237	-0.368485
-0.782358	0.117519
-0.842308	-0.358621
-0.792354	0.122165
-0.852376	-0.352066
-0.802319	0.115228
-0.862352	-0.343538
-0.812383	0.106637
-0.872367	-0.337238
-0.822394	0.102374
-0.882381	-0.325656
-0.832332	0.094737
-0.892323	-0.315347
-0.842377	0.0913642
-0.902349	-0.308856
-0.852372	0.0869095
-0.912367	-0.292119
-0.862375	0.0790184
-0.922413	-0.283719
-0.872378	0.0714455
-0.932335	-0.270736
-0.882358	0.0651453
-0.942338	-0.2694
-0.892339	0.0638726
-0.952315	-0.255463
-0.902322	0.0603725
-0.96239	-0.259345
-0.912295	0.0591633
-0.972256	-0.24999
-0.922313	0.0580179
-0.982286	-0.247763
-0.932347	0.0526723
-0.992438	-0.244836
-0.94235	0.0601815
-1.00247	-0.242099
-0.952292	0.0564269
-1.01241	-0.240254
-0.962337	0.0596088
-1.02238	-0.238345
-0.972309	0.0592906
-1.03243	-0.244645
-0.982309	0.0601815
-1.04239	-0.248781
-0.99243	0.0559178
-1.05232	-0.251963
-1.00244	0.0581451
-1.06239	-0.255272
-1.01243	0.0658453
-1.07239	-0.258582
-1.02242	0.0573815
-1.08237	-0.265454
-1.03241	0.0670545
-1.09243	-0.270673
-1.04241	0.0658453
-1.10238	-0.279455
-1.05241	0.0754547
-1.11234	-0.286264
-1.06235	0.0770456
-1.12232	-0.295492
-1.07239	0.0760911