Folder: ElectrochemLabUtils/VFSWV_data_prep/Example_data/CoPc_VFSWV_txt_data (part 12)

File: CoPc_CNT_VFSWV_scans_67_66_C02.txt
Ewe/V	<I>/mA
-0.12271	0.0314328
-0.0725881	0.0303552
-0.132713	0.0317333
-0.0825835	0.0338274
-0.142648	0.0291918
-0.0927087	0.0310771
-0.152654	0.0245621
-0.102677	0.0299912
-0.162684	0.0236434
-0.112616	0.0280582
-0.172607	0.0236135
-0.12263	0.0290963
-0.182629	0.0260059
-0.132633	0.0334217
-0.192613	0.0215075
-0.142655	0.0280403
-0.202593	0.0210899
-0.152628	0.0271335
-0.212585	0.0219311
-0.162604	0.0253258
-0.222615	0.0226112
-0.172607	0.0261073
-0.232614	0.023184
-0.182637	0.0260775
-0.242647	0.0237806
-0.192621	0.0286131
-0.252605	0.0227186
-0.202601	0.0264832
-0.262581	0.0225754
-0.212581	0.0250454
-0.272561	0.0182739
-0.222599	0.0305401
-0.282606	0.0255943
-0.232599	0.0301165
-0.292625	0.0237567
-0.242575	0.0296452
-0.302593	0.0255525
-0.252609	0.0306416
-0.312596	0.0212211
-0.2626	0.0261849
-0.322569	0.0227902
-0.272592	0.0291858
-0.33256	0.0215672
-0.282602	0.0256122
-0.34259	0.0188049
-0.29259	0.0211018
-0.352563	0.0260178
-0.302593	0.0241147
-0.362535	0.0186498
-0.312592	0.023345
-0.37255	0.0164184
-0.322641	0.0218237
-0.382553	0.019312
-0.332572	0.0222831
-0.392537	0.0173014
-0.342544	0.0248425
-0.402536	0.0141096
-0.352528	0.0213226
-0.412566	0.0127732
-0.362543	0.0227365
-0.422523	0.00870431
-0.372561	0.0216447
-0.43253	0.0103569
-0.382579	0.0181963
-0.442517	0.0168182
-0.392529	0.020887
-0.452517	0.00831652
-0.402547	0.0173193
-0.462466	0.00700398
-0.412512	0.0179458
-0.472549	0.00634772
-0.422542	0.0202725
-0.482526	0.0058406
-0.432526	0.0194373
-0.492533	0.00573321
-0.442517	0.0202487
-0.502593	0.00685483
-0.452505	0.02001
-0.512611	0.00965888
-0.462527	0.0182858
-0.522607	0.00276807
-0.47253	0.0201651
-0.532568	0.000751544
-0.482503	0.0195208
-0.542624	0.00100212
-0.49262	0.0200816
-0.552581	5.78508e-06
-0.502555	0.020004
-0.562569	-0.000811567
-0.512619	0.0203859
-0.572572	-0.00148573
-0.522649	0.0234882
-0.582602	0.00167032
-0.532572	0.0238641
-0.59259	-0.00143204
-0.54259	0.0215075
-0.60252	-0.00710577
-0.55257	0.0241624
-0.612565	-0.00437928
-0.562577	0.0242698
-0.622568	-0.0101723
-0.57261	0.0210899
-0.632575	-0.00320396
-0.582552	0.0250752
-0.642548	-0.00427189
-0.592571	0.026346
-0.652509	-0.00284003
-0.602562	0.0259105
-0.662562	-0.00720123
-0.612546	0.0258568
-0.672607	-0.00201671
-0.62253	0.028273
-0.68256	-0.00127692
-0.632594	0.0270619
-0.692529	-0.00547107
-0.642552	0.0252602
-0.702558	-0.00369914
-0.652589	0.0276585
-0.712569	-0.00380057
-0.6625	0.0233391
-0.722458	-0.00619893
-0.672545	0.0242519
-0.732468	-0.00461792
-0.682529	0.0241266
-0.74246	-0.00326959
-0.692582	0.0260536
-0.752474	-0.00448666
-0.702497	0.0238104
-0.762481	-0.00482076
-0.7125	0.0220265
-0.772534	-0.00449263
-0.722484	0.0235837
-0.782514	-0.00208831
-0.732514	0.0239894
-0.792479	-0.00388409
-0.742448	0.0243056
-0.802467	-0.0044449
-0.752493	0.0235002
-0.812458	-0.00581113
-0.762493	0.0186557
-0.822492	-0.00664638
-0.772511	0.0194373
-0.832518	-0.00792909
-0.782487	0.0212152
-0.842475	-0.00665235
-0.792437	0.0167943
-0.852482	-0.0064316
-0.802474	0.0209646
-0.862493	-0.00105618
-0.812489	0.0200876
-0.87245	-0.00542334
-0.822488	0.0254809
-0.88248	-0.00399148
-0.832518	0.0195089
-0.892467	-0.00470741
-0.84249	0.0216924
-0.902532	-0.00216586
-0.852497	0.018077
-0.912603	-0.0050952
-0.862523	0.0180412
-0.922576	-0.00233291
-0.872507	0.0171702
-0.932586	-0.00181983
-0.882434	0.0197236
-0.942567	0.000262326
-0.892471	0.0162812
-0.952539	-0.000918956
-0.902589	0.0192404
-0.962527	0.00400902
-0.912645	0.0186676
-0.972557	0.00102002
-0.922572	0.0190554
-0.982533	0.000471138
-0.932575	0.0236612
-0.992536	0.00593009
-0.942574	0.0203322
-1.00254	0.00424766
-0.952535	0.0235658
-1.01256	0.00471301
-0.962554	0.0178205
-1.02249	-0.00113373
-0.972583	0.0252303
-1.03252	-0.00164085
-0.982521	0.0198549
-1.04253	0.00391953
-0.992559	0.0216745
-1.05255	-0.00326362
-1.00254	0.0173074
-1.06252	-0.00501168
-1.01258	0.0154519
-1.07247	0.00110951
-1.02251	0.0170986
-1.08252	0.000656087
-1.03251	0.0187512
-1.09256	-0.00112777
-1.04253	0.0231243
-1.10253	-0.00289372
-1.05249	0.0190196
-1.11253	-0.00720123
-1.06253	0.0162335
-1.12249	-0.00541737
-1.0725	0.0183992

File: CoPc_CNT_VFSWV_scans_68_67_C02.txt
Ewe/V	<I>/mA
-0.122573	0.0263163
-0.0724774	0.0268804
-0.132507	0.0213841
-0.082488	0.0262122
-0.142598	0.0211731
-0.0925675	0.0211429
-0.152563	0.020736
-0.102582	0.0248658
-0.162547	0.0165158
-0.112547	0.0227406
-0.172569	0.025966
-0.122584	0.022203
-0.182595	0.0170031
-0.132568	0.0204747
-0.192522	0.0179677
-0.142556	0.0208867
-0.202567	0.0184199
-0.152521	0.0243232
-0.212528	0.0175005
-0.162539	0.0219468
-0.222538	0.0158878
-0.17255	0.0222583
-0.232492	0.0170031
-0.182587	0.0206054
-0.24248	0.0168876
-0.192541	0.0170282
-0.252505	0.0188017
-0.202513	0.0175206
-0.262463	0.0134863
-0.212551	0.0191986
-0.272504	0.0178019
-0.222496	0.0198518
-0.282492	0.016988
-0.232545	0.0245844
-0.292502	0.013421
-0.242518	0.0184651
-0.302494	0.0137927
-0.252525	0.0166766
-0.312478	0.0164053
-0.262478	0.0226803
-0.322511	0.0205702
-0.272519	0.0231777
-0.332473	0.0170684
-0.282522	0.0193041
-0.34251	0.0152799
-0.292533	0.0231325
-0.352498	0.0185455
-0.302521	0.0223286
-0.362535	0.0175407
-0.312489	0.0248507
-0.372519	0.0156918
-0.322538	0.0220674
-0.382442	0.0128482
-0.332476	0.0195604
-0.392498	0.0153452
-0.34243	0.0198166
-0.40244	0.0141796
-0.352479	0.0223789
-0.412482	0.0157521
-0.362493	0.0165911
-0.422485	0.0130592
-0.372458	0.0204898
-0.432476	0.0156768
-0.382495	0.0203793
-0.442468	0.0140741
-0.392495	0.0188068
-0.452456	0.013019
-0.402524	0.020957
-0.462436	0.0104065
-0.412508	0.01845
-0.472446	0.0103111
-0.42245	0.021992
-0.482415	0.0110396
-0.432434	0.0229164
-0.492472	0.00890936
-0.442502	0.0254385
-0.502528	0.00752774
-0.452524	0.0204999
-0.51255	0.00347333
-0.462485	0.0172443
-0.522519	0.0042621
-0.472443	0.0184752
-0.532594	0.00863806
-0.482499	0.0239212
-0.542533	0.0148679
-0.492559	0.0239966
-0.552528	0.00423196
-0.502543	0.0238258
-0.56252	0.00729664
-0.512565	0.0242177
-0.572519	0.00419679
-0.522572	0.0203944
-0.582591	0.00275991
-0.532587	0.0248658
-0.592533	0.00531213
-0.542563	0.0178673
-0.602547	-0.000636352
-0.552517	0.02053
-0.612523	0.000509133
-0.562558	0.0200728
-0.622488	-0.00096794
-0.572458	0.0220724
-0.632518	-0.00450488
-0.582537	0.0178321
-0.642483	-0.00341466
-0.592513	0.0208666
-0.652505	-0.00494197
-0.602543	0.0188068
-0.662474	-0.00268617
-0.612497	0.0204345
-0.672549	-0.00451995
-0.622492	0.0189675
-0.682514	-0.00126938
-0.632529	0.0199723
-0.69251	-0.00153063
-0.642475	0.0209671
-0.702516	-0.00494197
-0.652497	0.0202034
-0.712504	-0.000530847
-0.662466	0.021987
-0.722439	-0.000415294
-0.672496	0.0231174
-0.732461	-0.00300268
-0.682514	0.0193644
-0.742456	-0.00640397
-0.692483	0.0185555
-0.752425	-0.00470584
-0.702482	0.018234
-0.762405	-0.00564031
-0.712458	0.0161741
-0.772454	-0.00667527
-0.722473	0.0188118
-0.782491	-0.00864973
-0.732484	0.0170584
-0.792441	-0.0075997
-0.742479	0.0153351
-0.802455	-0.00550466
-0.752425	0.0194297
-0.812435	-0.00525346
-0.762455	0.0211027
-0.822457	-0.00463048
-0.772496	0.0203089
-0.832453	0.00161945
-0.782449	0.020535
-0.842429	-0.00475106
-0.792437	0.0161139
-0.852478	-0.00335939
-0.802417	0.0153402
-0.862458	-0.000777026
-0.812458	0.0201432
-0.8724	-0.00199787
-0.822465	0.0173196
-0.882449	0.000956274
-0.832434	0.0214092
-0.892444	0.00701529
-0.842467	0.0244638
-0.902512	0.00237306
-0.852409	0.0201884
-0.9125	-0.00136484
-0.862489	0.0199673
-0.922553	0.00304126
-0.872438	0.0159129
-0.932544	0.00600545
-0.882457	0.021575
-0.942498	0.00744736
-0.892467	0.0219166
-0.952551	0.00502074
-0.902535	0.0278852
-0.962546	0.0101955
-0.912565	0.0189324
-0.972507	0.00324724
-0.922503	0.0189123
-0.982541	0.00404607
-0.932529	0.0213439
-0.992578	0.00362405
-0.942547	0.0207712
-1.00252	0.00500064
-0.952497	0.0211379
-1.01256	0.0068093
-0.962496	0.0214846
-1.02251	0.00770861
-0.972534	0.0218564
-1.03246	0.00853255
-0.982479	0.0192087
-1.04245	0.00675906
-0.992471	0.0237555
-1.05249	0.011125
-1.00254	0.0196608
-1.06251	0.00154911
-1.01252	0.0196357
-1.07255	0.00581956
-1.02252	0.0208515
-1.08244	0.0046992
-1.03248	0.0256797
-1.09245	0.00803517
-1.04252	0.0240117
-1.10252	0.00644757
-1.05246	0.0259711
-1.1125	0.0045535
-1.06246	0.0244086
-1.12245	0.0102458
-1.07247	0.02574

File: CoPc_CNT_VFSWV_scans_69_68_C02.txt
Ewe/V	<I>/mA
-0.122569	0.0134487
-0.0724888	0.0222554
-0.132564	0.0158212
-0.0824613	0.0242933
-0.142556	0.0185596
-0.0926209	0.0262453
-0.152605	0.01503
-0.10249	0.0236197
-0.162558	0.0143535
-0.112581	0.0236497
-0.17255	0.0137426
-0.122538	0.0215089
-0.182541	0.0136722
-0.132519	0.0195612
-0.192548	0.012785
-0.142583	0.0199258
-0.202509	0.0147769
-0.152513	0.0232979
-0.212547	0.0159563
-0.162562	0.0290082
-0.222561	0.0172755
-0.172569	0.0212215
-0.232545	0.0148983
-0.182534	0.0217449
-0.242518	0.0165265
-0.19248	0.0279399
-0.252532	0.018373
-0.202525	0.0245163
-0.262539	0.0184897
-0.212509	0.0285835
-0.2725	0.0177998
-0.222557	0.029952
-0.282499	0.0220844
-0.232572	0.0276654
-0.292491	0.0224401
-0.242567	0.0297075
-0.302475	0.0275184
-0.252463	0.0273908
-0.312478	0.0175656
-0.262501	0.0273522
-0.3225	0.0207304
-0.272527	0.0273221
-0.332465	0.0187913
-0.282534	0.0283432
-0.342491	0.0234303
-0.292548	0.0302052
-0.352425	0.0197008
-0.302536	0.027704
-0.362512	0.0176372
-0.312489	0.0271334
-0.372485	0.0231887
-0.322466	0.0282617
-0.382461	0.0196639
-0.332465	0.0310117
-0.392426	0.020476
-0.342445	0.0295573
-0.402452	0.02494
-0.352479	0.0353749
-0.412482	0.0164819
-0.362463	0.0288752
-0.422481	0.0191075
-0.372527	0.0329037
-0.432453	0.0207429
-0.382453	0.0263869
-0.442453	0.0156633
-0.392491	0.0271548
-0.452459	0.0148254
-0.402421	0.0293814
-0.462482	0.0186784
-0.412466	0.0288108
-0.472496	0.0164175
-0.422485	0.0310246
-0.482442	0.01665
-0.432472	0.032376
-0.492403	0.0120531
-0.44246	0.027009
-0.502528	0.0169396
-0.452437	0.0267086
-0.512535	0.00871701
-0.462428	0.0246536
-0.522484	0.0137228
-0.472427	0.0252886
-0.532507	0.00986421
-0.482472	0.0263869
-0.542544	0.0086312
-0.492567	0.0249153
-0.552517	0.00695073
-0.502555	0.0299606
-0.562478	0.00935925
-0.512562	0.0299263
-0.572504	0.00701894
-0.522519	0.0298276
-0.582503	0.00792932
-0.53256	0.0290597
-0.592506	0.00503386
-0.542521	0.0278842
-0.602562	0.00409173
-0.552574	0.0296303
-0.612531	0.00820647
-0.562493	0.034032
-0.622519	0.00783923
-0.57253	0.0369751
-0.632503	0.00850421
-0.582491	0.0298963
-0.642498	0.00716867
-0.592521	0.030913
-0.652486	0.00816529
-0.602494	0.0305741
-0.662497	0.00779719
-0.612562	0.0296045
-0.672473	0.00629261
-0.622545	0.037284
-0.682487	0.00784052
-0.632476	0.0320457
-0.692502	0.00822449
-0.64246	0.0322301
-0.702486	0.00745225
-0.652471	0.034105
-0.712523	0.00629476
-0.662474	0.0335258
-0.722465	0.00621968
-0.672492	0.0277383
-0.732491	0.00212296
-0.682518	0.0287379
-0.742445	0.00622397
-0.692452	0.0281373
-0.752444	0.00600774
-0.702474	0.028326
-0.762413	0.00648739
-0.712451	0.0294587
-0.772435	0.00456838
-0.722461	0.0302738
-0.782438	0.00376396
-0.732503	0.0297461
-0.792414	0.0038429
-0.742414	0.0289095
-0.802463	0.00424232
-0.752409	0.0241603
-0.812432	0.0042479
-0.762455	0.0291798
-0.822435	0.0044461
-0.772484	0.0316252
-0.832487	0.00239281
-0.78238	0.0252543
-0.842479	0.000462218
-0.792403	0.0257648
-0.852383	0.000824312
-0.802398	0.0258678
-0.86242	0.00284714
-0.812466	0.0225815
-0.872461	0.0029381
-0.822446	0.0237269
-0.882441	0.00937384
-0.832426	0.0286006
-0.892402	0.0103975
-0.842456	0.0276868
-0.902516	0.0118055
-0.852436	0.0293771
-0.912493	0.0161884
-0.862431	0.0279442
-0.922564	0.00877836
-0.872419	0.0310889
-0.932571	0.0105562
-0.882407	0.0271891
-0.942532	0.00839052
-0.892421	0.0257176
-0.952501	0.00677354
-0.902562	0.0268845
-0.962531	0.00268841
-0.9125	0.0255589
-0.97248	0.00840168
-0.922503	0.0271162
-0.98251	0.00652214
-0.932506	0.0257305
-0.992448	0.00848662
-0.942544	0.0273393
-1.00251	0.00853853
-0.952543	0.0298534
-1.0125	0.0119274
-0.962477	0.0317582
-1.02252	0.0129776
-0.972484	0.0346198
-1.03248	0.0118875
-0.982514	0.0310675
-1.0425	0.0120256
-0.992513	0.0284161
-1.05249	0.0192293
-1.00255	0.0315995
-1.06247	0.012779
-1.01246	0.032968
-1.07249	0.0101581
-1.0225	0.0269103
-1.08253	0.00962481
-1.03252	0.0286349
-1.09252	0.0115979
-1.04246	0.034534
-1.10251	0.00726949
-1.05248	0.0265842
-1.11243	0.00350655
-1.06249	0.0248038
-1.12248	0.00279395
-1.07253	0.0245635

File: CoPc_CNT_VFSWV_scans_70_69_C02.txt
Ewe/V	<I>/mA
-0.122467	0.0180306
-0.0723261	0.0271055
-0.132432	0.0203503
-0.0823788	0.0260205
-0.142431	0.0188699
-0.0924048	0.0290789
-0.152412	0.0217926
-0.10237	0.0265346
-0.162449	0.019908
-0.112506	0.026769
-0.172418	0.0213434
-0.122444	0.0341561
-0.182444	0.0248143
-0.132467	0.0277595
-0.192424	0.0236439
-0.142435	0.0245348
-0.202434	0.0215691
-0.152396	0.0289655
-0.212438	0.0181607
-0.162449	0.0257748
-0.222414	0.020708
-0.172429	0.0268257
-0.232405	0.0166814
-0.18244	0.0255631
-0.242412	0.0191436
-0.192458	0.0239639
-0.252369	0.0180128
-0.202385	0.0182365
-0.262453	0.0208229
-0.212411	0.0250867
-0.272387	0.0177286
-0.222406	0.0244062
-0.282417	0.0175029
-0.232444	0.0250187
-0.292378	0.0187553
-0.242447	0.0232381
-0.302438	0.0175925
-0.252369	0.0264401
-0.312399	0.0212429
-0.262422	0.0260734
-0.322425	0.0151665
-0.27241	0.0268825
-0.332367	0.018592
-0.282432	0.0250716
-0.342351	0.0165037
-0.292412	0.0249695
-0.352385	0.019271
-0.302339	0.0219527
-0.36243	0.0213722
-0.312376	0.0235065
-0.372391	0.0171365
-0.322383	0.0258806
-0.382436	0.0207242
-0.332382	0.0282548
-0.392328	0.0199519
-0.342416	0.0274079
-0.402388	0.0163328
-0.352373	0.0260394
-0.412342	0.0158822
-0.362411	0.0246217
-0.422421	0.0176458
-0.372379	0.0259714
-0.432329	0.018
-0.382344	0.0285421
-0.442328	0.0206444
-0.392382	0.0277671
-0.452331	0.0193545
-0.402358	0.0296346
-0.462353	0.0177263
-0.412307	0.0298653
-0.472391	0.0168307
-0.422383	0.0313359
-0.482321	0.0201965
-0.432375	0.0276764
-0.49229	0.011318
-0.442332	0.0270412
-0.50235	0.0142486
-0.452323	0.0246671
-0.51233	0.0117437
-0.462349	0.0273475
-0.522341	0.0133092
-0.472299	0.025495
-0.532424	0.0101665
-0.482321	0.0268257
-0.542431	0.00925348
-0.492347	0.0266518
-0.552472	0.00678369
-0.502327	0.0241719
-0.562422	0.00533236
-0.512365	0.0240282
-0.572379	0.00326217
-0.522345	0.0240433
-0.582401	0.00809136
-0.532443	0.0262587
-0.59242	0.00687896
-0.542408	0.0281716
-0.602338	0.00696704
-0.55243	0.0282018
-0.612399	0.0072071
-0.562426	0.0302282
-0.622413	0.00185281
-0.572421	0.0217108
-0.63239	0.00275899
-0.582386	0.0256009
-0.642355	0.0014914
-0.592412	0.0231738
-0.652369	0.000707703
-0.602468	0.027132
-0.662433	0.00997026
-0.612414	0.0249015
-0.672417	0.00488286
-0.622406	0.0241454
-0.682382	0.00641131
-0.632416	0.0268182
-0.692381	0.00706496
-0.642435	0.0277746
-0.702335	0.00616294
-0.652411	0.0288445
-0.712341	0.00709974
-0.662384	0.0268484
-0.722386	0.00548131
-0.672394	0.0263645
-0.732317	0.0103211
-0.682332	0.0297027
-0.742301	0.0124495
-0.692312	0.0272605
-0.752361	0.00896389
-0.702388	0.0291772
-0.762288	0.0046273
-0.71236	0.0263721
-0.772413	0.0054798
-0.722356	0.0302849
-0.782305	0.00642454
-0.732367	0.0254156
-0.792396	0.00611076
-0.742335	0.027355
-0.802369	0.00775225
-0.752407	0.0266707
-0.812265	0.00679654
-0.762349	0.0266707
-0.822367	0.00458912
-0.772364	0.026924
-0.832321	0.00387953
-0.78234	0.0263078
-0.842312	0.00408934
-0.79232	0.0275478
-0.852388	0.000468399
-0.802342	0.0280166
-0.862341	0.00397479
-0.812318	0.0253816
-0.872325	0.00487341
-0.822364	0.0249809
-0.882321	0.00431579
-0.83234	0.0289277
-0.892327	0.00446058
-0.842385	0.024255
-0.902331	0.00642454
-0.852369	0.0208223
-0.912353	0.0112844
-0.862338	0.0260054
-0.922318	0.00996837
-0.872363	0.0247238
-0.932363	0.0122911
-0.882378	0.0272303
-0.942473	0.00428366
-0.892381	0.0209698
-0.952426	0.00589377
-0.902296	0.0195634
-0.96246	0.00682149
-0.912337	0.0170041
-0.972432	0.00246789
-0.92231	0.0202666
-0.98242	0.00412526
-0.932321	0.0182516
-0.99245	0.00781274
-0.942423	0.0201078
-1.00247	0.00360015
-0.952411	0.019915
-1.01236	0.00356612
-0.962444	0.0230075
-1.02241	0.00978123
-0.972444	0.0193593
-1.03238	0.00293289
-0.982416	0.0225878
-1.04239	0.00541251
-0.992411	0.0163425
-1.05237	-0.000428331
-1.00236	0.0213781
-1.06236	0.00698027
-1.01239	0.0160249
-1.07237	0.000883874
-1.0224	0.0170381
-1.08239	0.000659691
-1.03235	0.0188452
-1.09238	-0.00239267
-1.04241	0.0139532
-1.10238	-0.00343268
-1.05241	0.0174577
-1.1124	-0.00220175
-1.06246	0.0158737
-1.12236	-0.00623779
-1.07241	0.0137075

File: CoPc_CNT_VFSWV_scans_71_70_C02.txt
Ewe/V	<I>/mA
-0.122429	0.0123032
-0.0723795	0.015067
-0.132413	0.0117638
-0.082333	0.00813039
-0.142397	0.00595245
-0.0923436	0.0107647
-0.152419	0.00542042
-0.102331	0.00956667
-0.162407	0.0048277
-0.112457	0.00875446
-0.172425	0.00559009
-0.12246	0.0076464
-0.182428	0.00178925
-0.132444	0.00493314
-0.192389	0.00377122
-0.142462	0.0063808
-0.202389	0.00383241
-0.152404	0.0102904
-0.212426	0.00675859
-0.162396	0.00811294
-0.222414	0.00276228
-0.172406	0.00600429
-0.23244	0.00296837
-0.182402	0.00645742
-0.24242	0.00676162
-0.192393	0.00581261
-0.252411	0.00760316
-0.20248	0.00678792
-0.262365	0.00378538
-0.212426	0.00566266
-0.272368	0.0028824
-0.222372	0.0085064
-0.282398	0.0071963
-0.232333	0.0059575
-0.292378	0.00251599
-0.24237	0.00810181
-0.302358	0.0042241
-0.252366	0.00705773
-0.312361	0.00839539
-0.262384	0.00737002
-0.32236	0.0047885
-0.272383	0.00632745
-0.332359	0.00907636
-0.282382	0.00817312
-0.342336	0.00667792
-0.292385	0.00623616
-0.352346	0.00758521
-0.302442	0.00665972
-0.362334	0.00545759
-0.31235	0.00905512
-0.372352	0.00685695
-0.322402	0.00996746
-0.382363	0.00862879
-0.332352	0.011912
-0.392336	0.0108189
-0.342298	0.0143203
-0.402362	0.00880175
-0.352327	0.0139031
-0.412353	0.0104972
-0.362372	0.0210261
-0.422352	0.0154883
-0.372372	0.013696
-0.432314	0.00830284
-0.382344	0.012198
-0.442339	0.00797538
-0.39232	0.0113114
-0.45227	0.00630267
-0.402381	0.0124339
-0.462281	0.0104952
-0.412399	0.0134907
-0.472345	0.00683141
-0.422364	0.0149075
-0.482325	0.0093573
-0.432329	0.0126759
-0.49232	0.00615499
-0.44232	0.0101892
-0.50232	0.00543003
-0.452323	0.0136312
-0.512345	0.00694824
-0.462334	0.0129733
-0.522307	0.00258528
-0.472322	0.0106429
-0.532458	0.00600631
-0.482359	0.0141314
-0.542404	0.00433081
-0.49232	0.0114566
-0.552415	0.00227223
-0.502297	0.0116419
-0.562429	0.010167
-0.512323	0.0157429
-0.572402	0.00363366
-0.522268	0.0127558
-0.582332	0.00586951
-0.532397	0.0147793
-0.592316	-0.000818306
-0.542431	0.0108704
-0.60243	0.00297242
-0.552415	0.0128797
-0.612426	0.00352796
-0.56238	0.0155965
-0.622444	0.00495565
-0.57241	0.0154056
-0.632401	0.00468483
-0.582363	0.0160997
-0.642366	0.00755941
-0.592385	0.0181158
-0.652396	0.00463653
-0.602365	0.0168141
-0.662345	0.00901871
-0.612315	0.0193372
-0.672356	0.00862221
-0.622387	0.019081
-0.682378	0.00819967
-0.632336	0.0209525
-0.692274	0.0111104
-0.642347	0.0207778
-0.70235	0.00912339
-0.652327	0.0185482
-0.71236	0.00727671
-0.662338	0.0181785
-0.722337	0.00811648
-0.672387	0.0191746
-0.732294	0.00471467
-0.682386	0.0196525
-0.742312	0.00514858
-0.692316	0.0225906
-0.752319	0.00919571
-0.70238	0.0194972
-0.762334	0.00476625
-0.712357	0.0170346
-0.772364	0.0137182
-0.722314	0.0184051
-0.782317	0.00532483
-0.732302	0.0173026
-0.792343	0.00455612
-0.742358	0.0178523
-0.802338	0.00972041
-0.752403	0.0193379
-0.812307	0.00718896
-0.762292	0.0179722
-0.822306	0.00785653
-0.772375	0.0154719
-0.832309	0.00444435
-0.782336	0.0219753
-0.842282	0.0039151
-0.792351	0.0152933
-0.852292	0.00346829
-0.802319	0.012416
-0.862334	0.00511748
-0.812273	0.0175714
-0.872329	0.00378993
-0.822314	0.0140138
-0.882279	0.00560223
-0.832328	0.0141681
-0.892354	0.00660914
-0.842316	0.0142523
-0.902319	0.00557188
-0.852311	0.0175818
-0.912253	0.00699704
-0.862273	0.0170566
-0.92223	0.00660206
-0.87231	0.0138877
-0.932237	0.00725623
-0.88234	0.0142546
-0.942369	0.00660939
-0.89232	0.0136813
-0.952418	0.0095429
-0.902323	0.0150073
-0.962372	0.0081491
-0.912364	0.0137789
-0.972375	0.00246415
-0.922356	0.00924704
-0.982363	0.00240903
-0.932336	0.0125738
-0.992358	0.00135887
-0.942335	0.0148045
-1.0023	0.00387186
-0.952392	0.0113911
-1.01243	0.00357955
-0.962387	0.0103556
-1.02238	0.00262725
-0.972375	0.00602805
-1.03235	-0.00436248
-0.982385	0.00554761
-1.04239	-0.00453949
-0.992381	0.00402358
-1.05242	-0.00179867
-1.00239	0.0110897
-1.06235	-0.00127347
-1.01243	0.00882451
-1.07235	-0.000247839
-1.0224	0.00899266
-1.08241	4.75747e-07
-1.03236	0.0109739
-1.0924	-0.000675689
-1.04238	0.0134717
-1.10238	-0.00055052
-1.05238	0.0152954
-1.11233	-0.00265892
-1.06239	0.00991284
-1.12232	0.00191442
-1.07238	0.0112343

File: CoPc_CNT_VFSWV_scans_72_71_C02.txt
Ewe/V	<I>/mA
-0.122307	0.0187561
-0.072322	0.0287252
-0.132306	0.0219488
-0.082348	0.0238853
-0.142424	0.0204483
-0.0923128	0.0242527
-0.152461	0.0220267
-0.102362	0.0211476
-0.162403	0.0254979
-0.112323	0.0302662
-0.172414	0.0261482
-0.122303	0.0256438
-0.18242	0.0232744
-0.132325	0.0250506
-0.192366	0.0249837
-0.142412	0.0253729
-0.202404	0.0204753
-0.152408	0.0225858
-0.212426	0.0219792
-0.162403	0.0225723
-0.222417	0.0194768
-0.17241	0.0218867
-0.232375	0.0232047
-0.182371	0.0206487
-0.242389	0.0175215
-0.192382	0.0193727
-0.252323	0.0196939
-0.202404	0.0218443
-0.262357	0.0213852
-0.212384	0.0226053
-0.272345	0.01889
-0.222387	0.0190515
-0.282336	0.0179649
-0.232344	0.0160734
-0.292389	0.0158534
-0.242339	0.0200383
-0.302339	0.0195539
-0.252377	0.0192489
-0.31233	0.0197718
-0.262357	0.022824
-0.322383	0.0170458
-0.272368	0.0186018
-0.332352	0.0155755
-0.282348	0.0176611
-0.342328	0.0184326
-0.292366	0.0169321
-0.352335	0.0169188
-0.302365	0.0158449
-0.36228	0.0168181
-0.312334	0.0195872
-0.372333	0.0152925
-0.322345	0.0197207
-0.382279	0.015268
-0.332348	0.0185832
-0.392335	0.0175713
-0.342278	0.0200583
-0.402346	0.0134724
-0.352281	0.0164241
-0.412311	0.0123047
-0.36233	0.0153964
-0.42236	0.0138757
-0.372291	0.016328
-0.432313	0.0148001
-0.382279	0.0148443
-0.442293	0.00843722
-0.392328	0.0121721
-0.452274	0.00964806
-0.402335	0.00979205
-0.462284	0.0118442
-0.412338	0.0172434
-0.472322	0.016199
-0.422295	0.021756
-0.482409	0.0186499
-0.432306	0.0254075
-0.492381	0.0192922
-0.442293	0.02299
-0.502369	0.0196275
-0.452327	0.0223542
-0.512353	0.0166792
-0.462357	0.0211857
-0.522371	0.0154298
-0.472264	0.0209747
-0.532344	0.0186186
-0.48237	0.0278681
-0.542389	0.0195127
-0.492381	0.0265847
-0.552319	0.0177457
-0.502434	0.0211667
-0.56236	0.0132188
-0.512341	0.0226333
-0.572379	0.014691
-0.522325	0.0246953
-0.582363	0.014521
-0.532321	0.0216857
-0.592381	0.0161517
-0.542373	0.0231511
-0.602338	0.014768
-0.552377	0.0247134
-0.612322	0.014927
-0.562307	0.0236562
-0.622344	0.0169594
-0.572337	0.027114
-0.632294	0.025788
-0.58234	0.0286751
-0.642301	0.0198841
-0.592339	0.02831
-0.652384	0.0217173
-0.602373	0.0322603
-0.662357	0.0209855
-0.612349	0.0316695
-0.672306	0.0232837
-0.622356	0.0371678
-0.682355	0.0210735
-0.632321	0.0296828
-0.692289	0.0238473
-0.642301	0.030633
-0.702288	0.0274897
-0.65235	0.0313547
-0.712292	0.0245764
-0.662311	0.0327175
-0.722318	0.0234047
-0.672325	0.0314698
-0.732282	0.0217989
-0.682328	0.028184
-0.742312	0.0222721
-0.692297	0.0307915
-0.752281	0.0229059
-0.702315	0.0272298
-0.762311	0.0183788
-0.712341	0.0251887
-0.772237	0.0195857
-0.722314	0.025789
-0.782286	0.0173232
-0.73234	0.0238525
-0.792285	0.0149177
-0.742282	0.025784
-0.802227	0.0171606
-0.752308	0.0246598
-0.812253	0.0193594
-0.762272	0.0281778
-0.822386	0.0239556
-0.772268	0.0286736
-0.832397	0.018164
-0.782298	0.0228878
-0.8424	0.0135754
-0.792282	0.0232301
-0.852395	0.0117821
-0.802334	0.0214521
-0.862436	0.0195897
-0.812299	0.0277769
-0.872413	0.0162417
-0.822405	0.0213732
-0.88237	0.015684
-0.832424	0.0222528
-0.892335	0.015446
-0.842392	0.0220085
-0.902353	0.015823
-0.852353	0.0274825
-0.912341	0.0170096
-0.862463	0.0238992
-0.922355	0.016902
-0.87242	0.0222596
-0.932378	0.0185659
-0.882423	0.0219329
-0.942365	0.0135277
-0.892343	0.0218637
-0.952349	0.0155924
-0.902327	0.0220254
-0.96236	0.0156152
-0.912387	0.0223496
-0.97231	0.0167383
-0.922397	0.0225945
-0.982324	0.0135927
-0.932343	0.0202587
-0.992289	0.0115538
-0.942362	0.0171963
-1.00231	0.0105817
-0.952326	0.0195044
-1.01232	0.0166809
-0.96231	0.0282475
-1.02234	0.0163008
-0.972355	0.0202357
-1.03234	0.0128433
-0.982313	0.0200195
-1.04229	0.0112303
-0.99232	0.0179491
-1.05238	0.0110272
-1.00233	0.017289
-1.06237	0.0120103
-1.01237	0.0175133
-1.07233	0.0103868
-1.02227	0.0136138
-1.08232	0.00745321
-1.03237	0.0136489
-1.09232	0.00548708
-1.04234	0.0173357
-1.10226	0.0123241
-1.05226	0.0197407
-1.11229	0.00977913
-1.06234	0.0206403
-1.1223	0.0130758
-1.07234	0.0231572