Folder: ElectrochemLabUtils/VFSWV_data_prep/Example_data/CoPc(OMe)8_VFSWV_txt_data (part 3)

File: CoPc(OMe)8_CNT_VFSWV_scans_13_12_C02.txt
Ewe/V	<I>/mA
-0.12211	-0.291801
-0.0721026	0.686571
-0.132117	-0.788814
-0.0821056	0.633879
-0.142105	-0.799887
-0.0921239	0.627897
-0.152119	-0.816942
-0.102112	0.609569
-0.162065	-0.824706
-0.112103	0.604987
-0.172095	-0.831706
-0.122099	0.606005
-0.182094	-0.840361
-0.132071	0.613387
-0.192074	-0.854107
-0.142074	0.618351
-0.202062	-0.87918
-0.152123	0.614915
-0.212122	-0.898653
-0.162141	0.618606
-0.222049	-0.922327
-0.172095	0.631079
-0.232079	-0.942691
-0.18209	0.653097
-0.242089	-0.974128
-0.192063	0.65437
-0.252035	-0.999965
-0.202089	0.670916
-0.26205	-1.02466
-0.212084	0.689117
-0.272095	-1.04808
-0.222049	0.695735
-0.282147	-1.07697
-0.23206	0.71699
-0.29215	-1.09122
-0.242082	0.723863
-0.302157	-1.10624
-0.252073	0.736209
-0.31208	-1.13004
-0.26205	0.757337
-0.32216	-1.15817
-0.272072	0.7595
-0.332166	-1.17981
-0.282113	0.7623
-0.342169	-1.18795
-0.292131	0.772355
-0.352138	-1.20399
-0.302123	0.778719
-0.362137	-1.23008
-0.312183	0.787246
-0.372167	-1.24535
-0.322152	0.791192
-0.382124	-1.26724
-0.33209	0.798956
-0.392177	-1.30199
-0.342112	0.819829
-0.402153	-1.33152
-0.352134	0.824284
-0.412114	-1.35965
-0.362126	0.836248
-0.422144	-1.39478
-0.372072	0.854576
-0.432071	-1.43741
-0.38209	0.868703
-0.442097	-1.49011
-0.392131	0.907522
-0.452111	-1.52587
-0.402096	0.934378
-0.462126	-1.59154
-0.412103	0.964797
-0.472098	-1.65416
-0.42211	1.00043
-0.482098	-1.72837
-0.432128	1.04193
-0.492062	-1.81173
-0.442097	1.08227
-0.502111	-1.93264
-0.452096	1.15304
-0.512065	-2.05407
-0.462099	1.21642
-0.52211	-2.21609
-0.472049	1.3143
-0.532094	-2.40484
-0.482067	1.42935
-0.542093	-2.62935
-0.492062	1.57636
-0.552084	-2.87487
-0.502107	1.73864
-0.562042	-3.1517
-0.512042	1.9363
-0.572049	-3.46772
-0.522068	2.13701
-0.582101	-3.78235
-0.53201	2.36649
-0.592089	-4.10321
-0.542024	2.56428
-0.602035	-4.4214
-0.552088	2.75939
-0.612049	-4.72305
-0.562118	2.92536
-0.622106	-4.99644
-0.572022	3.05378
-0.632013	-5.2347
-0.582006	3.15242
-0.642081	-5.44407
-0.592058	3.23273
-0.652039	-5.61233
-0.602019	3.27499
-0.66203	-5.74177
-0.612	3.30146
-0.672033	-5.81839
-0.622056	3.30795
-0.682055	-5.86
-0.632074	3.29153
-0.69202	-5.84422
-0.642043	3.27371
-0.702	-5.79509
-0.65205	3.23591
-0.712137	-5.69773
-0.662057	3.19238
-0.722159	-5.56014
-0.672079	3.14033
-0.732093	-5.39074
-0.682051	3.05582
-0.7421	-5.1904
-0.692024	2.97016
-0.752088	-4.97887
-0.702134	2.85307
-0.762091	-4.76034
-0.712148	2.74946
-0.772163	-4.54461
-0.722159	2.62995
-0.782139	-4.34478
-0.732139	2.51069
-0.792154	-4.14649
-0.742074	2.39996
-0.802107	-3.98026
-0.752126	2.28669
-0.812095	-3.83186
-0.762145	2.17939
-0.822155	-3.70598
-0.772106	2.08648
-0.832158	-3.59831
-0.782082	2.0077
-0.842123	-3.50667
-0.7921	1.93642
-0.852088	-3.44189
-0.802061	1.87355
-0.862118	-3.38461
-0.812114	1.82251
-0.872109	-3.33459
-0.822102	1.77669
-0.88207	-3.30557
-0.832101	1.75365
-0.892108	-3.29068
-0.842135	1.72209
-0.902099	-3.27681
-0.852164	1.70389
-0.912102	-3.26994
-0.862057	1.68887
-0.922052	-3.26395
-0.872121	1.66952
-0.932082	-3.26383
-0.882063	1.66023
-0.942073	-3.27859
-0.892096	1.65629
-0.95205	-3.28457
-0.902138	1.65082
-0.962118	-3.29119
-0.912133	1.63987
-0.972014	-3.29997
-0.922071	1.64623
-0.982043	-3.3127
-0.932067	1.64763
-0.992031	-3.30926
-0.942005	1.65018
-1.00207	-3.31805
-0.952092	1.66227
-1.01204	-3.32352
-0.962011	1.66316
-1.02206	-3.33039
-0.972086	1.67436
-1.03204	-3.32517
-0.98204	1.6848
-1.04204	-3.32632
-0.992039	1.68569
-1.05201	-3.32403
-1.00208	1.68963
-1.06206	-3.33039
-1.01204	1.68747
-1.07211	-3.32975
-1.02207	1.69371
-1.08209	-3.33892
-1.03205	1.67754
-1.09201	-3.33841
-1.04204	1.68913
-1.102	-3.33981
-1.05204	1.6946
-1.11203	-3.36488
-1.06207	1.67831
-1.12214	-3.39327
-1.07211	1.69383

File: CoPc(OMe)8_CNT_VFSWV_scans_14_13_C02.txt
Ewe/V	<I>/mA
-0.122118	-0.238726
-0.0721254	0.553949
-0.132086	-0.655429
-0.0821018	0.523148
-0.142074	-0.659629
-0.0920781	0.51513
-0.152081	-0.678084
-0.102108	0.500239
-0.162096	-0.683429
-0.112046	0.494511
-0.172015	-0.69043
-0.122076	0.498584
-0.182086	-0.704939
-0.13206	0.498457
-0.192051	-0.711812
-0.142131	0.494766
-0.202066	-0.726831
-0.152054	0.510166
-0.212076	-0.746558
-0.162065	0.522894
-0.22203	-0.766159
-0.172083	0.514366
-0.232021	-0.791741
-0.18201	0.53104
-0.242074	-0.81656
-0.192055	0.542876
-0.252077	-0.840361
-0.202077	0.55064
-0.262042	-0.862125
-0.212069	0.558531
-0.272045	-0.875998
-0.222053	0.577877
-0.282197	-0.904508
-0.232021	0.596841
-0.292154	-0.921818
-0.242005	0.605242
-0.302134	-0.946764
-0.252058	0.618224
-0.312153	-0.958091
-0.26208	0.628788
-0.322072	-0.983165
-0.272053	0.633115
-0.332086	-0.988892
-0.28214	0.641515
-0.342135	-1.00264
-0.292162	0.638588
-0.352131	-1.02682
-0.302176	0.655643
-0.362126	-1.03917
-0.31216	0.651316
-0.372125	-1.06819
-0.322129	0.670152
-0.382098	-1.08282
-0.332128	0.672698
-0.392097	-1.10942
-0.342154	0.689498
-0.402161	-1.13284
-0.352085	0.694717
-0.412145	-1.15766
-0.362084	0.704135
-0.422056	-1.20043
-0.372114	0.717881
-0.432147	-1.24319
-0.382128	0.746136
-0.442093	-1.27666
-0.39212	0.764464
-0.452107	-1.3221
-0.402134	0.79221
-0.462103	-1.37352
-0.412091	0.821866
-0.472136	-1.43856
-0.422083	0.850121
-0.482124	-1.50194
-0.432101	0.884867
-0.49207	-1.59422
-0.442135	0.930941
-0.502119	-1.68891
-0.452088	0.982997
-0.512088	-1.81097
-0.46208	1.04536
-0.522094	-1.97057
-0.472083	1.13662
-0.532075	-2.1499
-0.482105	1.25091
-0.542043	-2.36258
-0.492024	1.38634
-0.552065	-2.6081
-0.502115	1.54072
-0.562038	-2.87207
-0.512046	1.74093
-0.57211	-3.17651
-0.522045	1.95221
-0.582029	-3.48605
-0.532059	2.17354
-0.592066	-3.80768
-0.542058	2.39042
-0.602046	-4.12027
-0.552088	2.59559
-0.612072	-4.41262
-0.562042	2.76563
-0.622029	-4.69403
-0.572087	2.92052
-0.632059	-4.93573
-0.582013	3.02794
-0.642032	-5.14624
-0.592066	3.11704
-0.652019	-5.30775
-0.60205	3.17024
-0.662015	-5.43147
-0.612053	3.206
-0.672041	-5.50974
-0.622037	3.2186
-0.682051	-5.54309
-0.632059	3.21148
-0.69202	-5.51712
-0.642051	3.18793
-0.702061	-5.45934
-0.652069	3.15064
-0.712145	-5.36185
-0.662049	3.0996
-0.722121	-5.21153
-0.672022	3.02769
-0.732132	-5.03958
-0.682032	2.93605
-0.742112	-4.84052
-0.69202	2.84594
-0.752103	-4.62937
-0.702115	2.72846
-0.762122	-4.41529
-0.712122	2.61684
-0.77214	-4.19269
-0.72209	2.49122
-0.782177	-3.99095
-0.732105	2.36674
-0.792131	-3.80348
-0.742066	2.24252
-0.802092	-3.64018
-0.75208	2.13497
-0.812133	-3.49432
-0.762148	2.02488
-0.822094	-3.37927
-0.772117	1.9377
-0.832139	-3.27083
-0.782116	1.84733
-0.842062	-3.19051
-0.792104	1.78
-0.852103	-3.11911
-0.802088	1.72044
-0.862072	-3.06769
-0.812076	1.67487
-0.87209	-3.02467
-0.822083	1.63351
-0.882086	-3.00635
-0.832128	1.5896
-0.892085	-2.97669
-0.842073	1.56974
-0.90208	-2.96842
-0.852088	1.5565
-0.912095	-2.95976
-0.862034	1.53359
-0.922105	-2.96816
-0.872136	1.51005
-0.932086	-2.96155
-0.882082	1.5047
-0.942039	-2.96944
-0.892096	1.5117
-0.952027	-2.97542
-0.902141	1.50305
-0.962091	-2.98369
-0.912034	1.48841
-0.972086	-3.00189
-0.922083	1.49503
-0.982063	-3.0024
-0.932059	1.50776
-0.992069	-3.01055
-0.942085	1.50381
-1.0021	-3.00927
-0.952046	1.51501
-1.0121	-3.01513
-0.962087	1.52405
-1.02205	-3.00775
-0.97204	1.53067
-1.03204	-3.01335
-0.982074	1.52659
-1.04205	-3.01678
-0.992077	1.53003
-1.05206	-3.01895
-1.00202	1.5369
-1.06205	-3.02302
-1.01208	1.53868
-1.07203	-3.03015
-1.02208	1.53652
-1.08206	-3.02391
-1.03201	1.53474
-1.09209	-3.03727
-1.04204	1.53958
-1.10204	-3.04644
-1.052	1.54339
-1.11203	-3.05293
-1.06209	1.53894
-1.12215	-3.08475
-1.07199	1.53448

File: CoPc(OMe)8_CNT_VFSWV_scans_15_14_C02.txt
Ewe/V	<I>/mA
-0.122083	-0.210471
-0.0720796	0.467274
-0.132106	-0.53528
-0.0821323	0.433292
-0.142055	-0.551699
-0.0920667	0.409109
-0.152081	-0.560099
-0.102093	0.407582
-0.162096	-0.571045
-0.112073	0.400963
-0.172064	-0.574354
-0.122106	0.409364
-0.18209	-0.587081
-0.132041	0.406054
-0.19212	-0.599682
-0.142097	0.403
-0.20207	-0.613682
-0.152073	0.414327
-0.212042	-0.636592
-0.162065	0.413818
-0.222072	-0.652883
-0.172018	0.416364
-0.232079	-0.668284
-0.182098	0.433928
-0.242089	-0.686611
-0.192047	0.436346
-0.252058	-0.712194
-0.202089	0.444746
-0.262023	-0.732431
-0.212092	0.456074
-0.272056	-0.751777
-0.222026	0.468165
-0.282128	-0.770486
-0.232063	0.49222
-0.292139	-0.787669
-0.242047	0.49553
-0.302123	-0.804214
-0.252054	0.507239
-0.312118	-0.823433
-0.262011	0.510675
-0.322156	-0.836033
-0.272079	0.516657
-0.332098	-0.851816
-0.282136	0.533203
-0.34207	-0.869507
-0.292162	0.529767
-0.352092	-0.87638
-0.302134	0.541476
-0.362118	-0.895853
-0.312095	0.544785
-0.372091	-0.917999
-0.322125	0.556495
-0.382086	-0.938109
-0.332143	0.564513
-0.392082	-0.956946
-0.342154	0.569859
-0.4021	-0.976928
-0.352089	0.586787
-0.412099	-1.00124
-0.362126	0.59646
-0.422102	-1.03726
-0.372076	0.603587
-0.432071	-1.07213
-0.382136	0.621151
-0.44212	-1.1168
-0.392127	0.640879
-0.452084	-1.15346
-0.402085	0.669389
-0.462088	-1.21341
-0.412084	0.691535
-0.47211	-1.25401
-0.422102	0.723099
-0.482067	-1.32146
-0.432094	0.748173
-0.492078	-1.40038
-0.44207	0.791192
-0.5021	-1.49851
-0.452088	0.835866
-0.512061	-1.61662
-0.462107	0.905995
-0.522087	-1.74619
-0.472064	0.988216
-0.532082	-1.92106
-0.482094	1.08482
-0.542108	-2.12941
-0.492093	1.21515
-0.5521	-2.36411
-0.502054	1.36673
-0.562038	-2.62515
-0.512057	1.54823
-0.572026	-2.9184
-0.522037	1.76091
-0.582044	-3.23277
-0.532086	1.98772
-0.592058	-3.54778
-0.54207	2.21045
-0.602069	-3.85197
-0.552096	2.41498
-0.612049	-4.14725
-0.562015	2.60462
-0.622006	-4.42089
-0.572091	2.76244
-0.632094	-4.66755
-0.582128	2.89443
-0.642058	-4.86471
-0.59207	2.98212
-0.652077	-5.02596
-0.602061	3.04805
-0.662015	-5.14013
-0.612126	3.08967
-0.672083	-5.21777
-0.622102	3.10965
-0.682048	-5.24322
-0.632082	3.1052
-0.692009	-5.22108
-0.642043	3.0814
-0.702019	-5.15184
-0.652008	3.03787
-0.71216	-5.05358
-0.662011	2.98085
-0.722113	-4.91154
-0.672045	2.91276
-0.732128	-4.73094
-0.682032	2.82023
-0.742115	-4.52755
-0.692093	2.71497
-0.752084	-4.30673
-0.702187	2.59228
-0.762133	-4.09341
-0.712133	2.46475
-0.772117	-3.87768
-0.722132	2.34282
-0.782116	-3.68244
-0.732124	2.21401
-0.792146	-3.49776
-0.742146	2.09132
-0.80213	-3.33319
-0.752122	1.98161
-0.812114	-3.20044
-0.762095	1.8808
-0.822128	-3.08118
-0.772087	1.78102
-0.832093	-2.98471
-0.782151	1.6904
-0.842104	-2.91496
-0.792093	1.61289
-0.852092	-2.85349
-0.802107	1.56452
-0.862114	-2.79354
-0.812076	1.51565
-0.872144	-2.76312
-0.822109	1.47734
-0.882082	-2.73588
-0.832135	1.44323
-0.892096	-2.72125
-0.842089	1.42465
-0.902103	-2.70979
-0.852111	1.39843
-0.912091	-2.70305
-0.862122	1.38226
-0.922098	-2.70674
-0.872117	1.37399
-0.932055	-2.7033
-0.882105	1.36152
-0.942108	-2.70967
-0.89207	1.36088
-0.95208	-2.72405
-0.902096	1.35197
-0.962076	-2.73092
-0.912095	1.34879
-0.972124	-2.73296
-0.922063	1.3577
-0.982082	-2.74098
-0.932044	1.35324
-0.9921	-2.74747
-0.942115	1.3661
-1.00205	-2.74428
-0.95208	1.36266
-1.01209	-2.75167
-0.962095	1.3773
-1.02203	-2.75421
-0.972067	1.3843
-1.03204	-2.75968
-0.982043	1.3899
-1.04206	-2.75739
-0.992089	1.37908
-1.05206	-2.75498
-1.00208	1.38964
-1.06209	-2.7551
-1.01204	1.39155
-1.07208	-2.76249
-1.02206	1.38481
-1.08207	-2.76032
-1.03208	1.39919
-1.0921	-2.76427
-1.04207	1.39092
-1.10208	-2.78018
-1.05208	1.39054
-1.11204	-2.79978
-1.06208	1.38901
-1.12214	-2.82663
-1.07207	1.39244

File: CoPc(OMe)8_CNT_VFSWV_scans_16_15_C02.txt
Ewe/V	<I>/mA
-0.122106	-0.169234
-0.0721445	0.392818
-0.132086	-0.441605
-0.0821285	0.365708
-0.142089	-0.452041
-0.0920667	0.354635
-0.1521	-0.461842
-0.102096	0.344198
-0.162073	-0.465023
-0.112099	0.340762
-0.172083	-0.47406
-0.12211	0.339107
-0.18206	-0.485388
-0.132048	0.345216
-0.192067	-0.496461
-0.142086	0.343435
-0.202047	-0.506643
-0.152093	0.342925
-0.212069	-0.523316
-0.162034	0.351198
-0.222087	-0.541389
-0.172045	0.356035
-0.232071	-0.553226
-0.182048	0.360235
-0.242101	-0.578426
-0.192055	0.370672
-0.252073	-0.58759
-0.202085	0.387854
-0.262111	-0.610373
-0.212073	0.388872
-0.272007	-0.628828
-0.222129	0.404273
-0.282155	-0.648301
-0.232052	0.417509
-0.292162	-0.667011
-0.24204	0.423619
-0.302172	-0.683938
-0.252092	0.431001
-0.312179	-0.692975
-0.262076	0.431001
-0.322129	-0.707994
-0.272045	0.432401
-0.332151	-0.728867
-0.282128	0.448819
-0.342154	-0.729631
-0.292135	0.457856
-0.352092	-0.751777
-0.302173	0.458747
-0.362114	-0.763104
-0.312141	0.471856
-0.372102	-0.77825
-0.322118	0.475165
-0.382147	-0.797341
-0.332121	0.484838
-0.392108	-0.810196
-0.34215	0.491202
-0.402119	-0.844052
-0.352062	0.496166
-0.412053	-0.86658
-0.362122	0.503803
-0.422129	-0.901581
-0.372125	0.517548
-0.432117	-0.926781
-0.382098	0.534858
-0.442097	-0.962928
-0.392143	0.550004
-0.452092	-0.997929
-0.402161	0.568331
-0.462084	-1.04553
-0.412049	0.593532
-0.472052	-1.09148
-0.422079	0.624206
-0.482097	-1.15448
-0.432094	0.650679
-0.492093	-1.22804
-0.442116	0.688353
-0.502104	-1.31637
-0.452077	0.728827
-0.512107	-1.4229
-0.462084	0.786356
-0.522125	-1.55234
-0.472045	0.856867
-0.532082	-1.71577
-0.482059	0.95856
-0.542116	-1.91712
-0.492101	1.07515
-0.552115	-2.13641
-0.502062	1.22431
-0.562068	-2.39415
-0.512084	1.40072
-0.572033	-2.66754
-0.522056	1.60309
-0.582067	-2.97478
-0.532075	1.82557
-0.592016	-3.27999
-0.542062	2.05263
-0.602073	-3.58291
-0.552065	2.26823
-0.612064	-3.87844
-0.562068	2.4622
-0.622041	-4.14865
-0.572071	2.63224
-0.632082	-4.38589
-0.582071	2.78268
-0.642074	-4.58126
-0.592139	2.87534
-0.652031	-4.74112
-0.602073	2.95132
-0.662003	-4.86038
-0.612053	3.00287
-0.672022	-4.92605
-0.622041	3.01789
-0.682044	-4.94871
-0.632025	3.01127
-0.692024	-4.92402
-0.642089	2.989
-0.702016	-4.8521
-0.652073	2.94674
-0.712125	-4.74761
-0.66203	2.88819
-0.722151	-4.59221
-0.671987	2.81094
-0.732193	-4.4116
-0.682059	2.7109
-0.742131	-4.21114
-0.692089	2.60437
-0.75213	-4.00165
-0.702145	2.47607
-0.762087	-3.78388
-0.712133	2.34485
-0.772113	-3.57718
-0.722094	2.21821
-0.782059	-3.38016
-0.732097	2.09323
-0.792112	-3.20439
-0.742096	1.96162
-0.802046	-3.05815
-0.752138	1.85128
-0.81208	-2.92209
-0.762087	1.74042
-0.822136	-2.81378
-0.772151	1.64929
-0.832132	-2.72774
-0.782116	1.56974
-0.842104	-2.64183
-0.792047	1.50368
-0.852122	-2.58277
-0.802115	1.44565
-0.862095	-2.53759
-0.812114	1.39906
-0.872094	-2.50195
-0.822075	1.35261
-0.882135	-2.47917
-0.83217	1.31862
-0.892108	-2.4723
-0.842112	1.29699
-0.90213	-2.45066
-0.852092	1.28197
-0.912137	-2.4672
-0.862106	1.26428
-0.922083	-2.45613
-0.872067	1.25155
-0.93204	-2.45957
-0.882124	1.24417
-0.942108	-2.46797
-0.892089	1.24328
-0.952027	-2.46491
-0.902126	1.23819
-0.962064	-2.47459
-0.912095	1.23144
-0.97209	-2.48502
-0.922075	1.24111
-0.982066	-2.49215
-0.932051	1.25028
-0.992054	-2.49355
-0.942058	1.24939
-1.00207	-2.49788
-0.952118	1.2541
-1.01212	-2.4947
-0.962091	1.26619
-1.02208	-2.49584
-0.97206	1.25906
-1.03199	-2.49699
-0.982051	1.27179
-1.04206	-2.49991
-0.992008	1.26746
-1.05208	-2.49381
-1.00208	1.27599
-1.06209	-2.50462
-1.01208	1.28146
-1.07201	-2.51811
-1.02209	1.26135
-1.08205	-2.50921
-1.03207	1.27815
-1.09211	-2.51404
-1.04209	1.27064
-1.10202	-2.52919
-1.05203	1.27446
-1.11205	-2.54319
-1.06204	1.27599
-1.12212	-2.56915
-1.07203	1.27942

File: CoPc(OMe)8_CNT_VFSWV_scans_17_16_C02.txt
Ewe/V	<I>/mA
-0.122072	-0.146706
-0.0721178	0.327907
-0.132128	-0.374021
-0.0821132	0.299524
-0.142151	-0.387512
-0.0921201	0.296852
-0.152066	-0.393367
-0.102154	0.278015
-0.162061	-0.406095
-0.112077	0.278269
-0.172064	-0.404949
-0.122102	0.283997
-0.182086	-0.414495
-0.132102	0.284378
-0.192063	-0.417422
-0.142101	0.284506
-0.20207	-0.437532
-0.152085	0.288069
-0.212034	-0.446568
-0.162084	0.291124
-0.222011	-0.455987
-0.172068	0.295706
-0.23206	-0.474824
-0.182037	0.307034
-0.242067	-0.485769
-0.192055	0.31327
-0.252054	-0.504734
-0.202066	0.32307
-0.262046	-0.528662
-0.21213	0.326889
-0.27206	-0.543044
-0.222072	0.339998
-0.282189	-0.551953
-0.23206	0.350944
-0.292154	-0.564044
-0.24207	0.354635
-0.302123	-0.582754
-0.252054	0.354762
-0.312179	-0.600191
-0.26208	0.35718
-0.322194	-0.613555
-0.272064	0.381872
-0.332098	-0.62501
-0.282178	0.383272
-0.342127	-0.637101
-0.292139	0.388109
-0.352192	-0.646901
-0.302165	0.391672
-0.362191	-0.66752
-0.312172	0.393581
-0.372163	-0.685211
-0.322163	0.407582
-0.382117	-0.696793
-0.332136	0.411145
-0.392131	-0.708375
-0.342143	0.408345
-0.402138	-0.73574
-0.352134	0.422473
-0.412111	-0.749867
-0.362111	0.431637
-0.42211	-0.778123
-0.372148	0.444746
-0.432128	-0.803196
-0.382079	0.461038
-0.442127	-0.834633
-0.392104	0.473765
-0.452134	-0.883762
-0.402172	0.484202
-0.462068	-0.919399
-0.412103	0.501257
-0.472133	-0.969928
-0.422129	0.530021
-0.482117	-1.02466
-0.43209	0.56044
-0.492081	-1.08486
-0.44212	0.591623
-0.502092	-1.16542
-0.452104	0.628406
-0.512137	-1.26559
-0.462072	0.679189
-0.522079	-1.39325
-0.472068	0.745755
-0.532128	-1.54916
-0.482048	0.830393
-0.542108	-1.73549
-0.492089	0.937432
-0.552062	-1.94843
-0.502111	1.07845
-0.562103	-2.19814
-0.512095	1.23933
-0.572102	-2.47051
-0.522048	1.43852
-0.582063	-2.75459
-0.532105	1.65094
-0.592066	-3.06871
-0.542097	1.89009
-0.6021	-3.36476
-0.552096	2.10888
-0.612064	-3.6426
-0.562057	2.31112
-0.622041	-3.90873
-0.572079	2.48486
-0.632051	-4.14776
-0.58201	2.6339
-0.642062	-4.34351
-0.592062	2.74437
-0.652077	-4.49535
-0.602054	2.8215
-0.662022	-4.61461
-0.612076	2.88247
-0.672083	-4.6757
-0.622094	2.89532
-0.682051	-4.6981
-0.63204	2.90614
-0.692058	-4.66285
-0.642058	2.86948
-0.702046	-4.58432
-0.652054	2.82926
-0.712144	-4.48275
-0.662026	2.76143
-0.722129	-4.32264
-0.672003	2.69295
-0.732113	-4.14038
-0.682036	2.58477
-0.742108	-3.94068
-0.692024	2.47747
-0.752088	-3.72978
-0.702168	2.33518
-0.76208	-3.51443
-0.712141	2.21554
-0.772075	-3.30837
-0.722148	2.08406
-0.782059	-3.1242
-0.732124	1.94788
-0.792073	-2.95645
-0.742138	1.82569
-0.802061	-2.80894
-0.7521	1.7086
-0.81216	-2.68039
-0.762137	1.59469
-0.822132	-2.57883
-0.772098	1.50534
-0.832093	-2.50157
-0.78212	1.42477
-0.842115	-2.42457
-0.792058	1.3647
-0.852111	-2.3678
-0.802046	1.3087
-0.862148	-2.32987
-0.812091	1.26211
-0.872113	-2.29296
-0.822079	1.22088
-0.882093	-2.27311
-0.832154	1.19657
-0.892108	-2.25796
-0.84207	1.1776
-0.902103	-2.25669
-0.852161	1.16067
-0.912106	-2.25402
-0.862102	1.14769
-0.922083	-2.25796
-0.872132	1.13547
-0.932078	-2.25631
-0.882059	1.12364
-0.942108	-2.25936
-0.892077	1.11575
-0.95208	-2.27298
-0.902042	1.12262
-0.962125	-2.27693
-0.912083	1.12058
-0.97204	-2.27934
-0.922063	1.11269
-0.982085	-2.28775
-0.932128	1.12122
-0.992077	-2.28813
-0.942066	1.12631
-1.00208	-2.29436
-0.952076	1.13586
-1.01206	-2.29105
-0.962064	1.13967
-1.02207	-2.29411
-0.972082	1.13955
-1.03204	-2.29436
-0.982066	1.14324
-1.04201	-2.2936
-0.992085	1.14044
-1.05206	-2.2992
-1.00206	1.14922
-1.06206	-2.30124
-1.01201	1.14935
-1.07205	-2.29538
-1.0221	1.15469
-1.08207	-2.30047
-1.03201	1.1496
-1.09203	-2.30607
-1.04209	1.14642
-1.10209	-2.3244
-1.05205	1.1482
-1.11201	-2.34489
-1.06207	1.14477
-1.12214	-2.36487
-1.07202	1.14871

File: CoPc(OMe)8_CNT_VFSWV_scans_18_17_C02.txt
Ewe/V	<I>/mA
-0.122102	-0.122651
-0.0721293	0.279287
-0.132056	-0.313947
-0.0820903	0.260578
-0.142074	-0.316365
-0.0920934	0.247214
-0.152073	-0.327565
-0.102096	0.244796
-0.162096	-0.332656
-0.112065	0.237414
-0.172057	-0.338766
-0.122102	0.236395
-0.182029	-0.355184
-0.132086	0.244032
-0.192089	-0.355184
-0.142097	0.233595
-0.202096	-0.37033
-0.152093	0.24365
-0.212069	-0.38624
-0.162111	0.24505
-0.222091	-0.395149
-0.172087	0.25345
-0.232029	-0.408386
-0.182056	0.252687
-0.242021	-0.425695
-0.192063	0.260451
-0.252058	-0.435241
-0.202043	0.268851
-0.26205	-0.454332
-0.212096	0.270633
-0.272056	-0.472915
-0.222064	0.280051
-0.282102	-0.482588
-0.232025	0.292524
-0.292108	-0.494806
-0.24204	0.297233
-0.302115	-0.509061
-0.252058	0.313016
-0.312137	-0.522934
-0.262011	0.314034
-0.322118	-0.533625
-0.27203	0.31887
-0.33214	-0.546226
-0.282166	0.320016
-0.34212	-0.555517
-0.292131	0.322816
-0.352111	-0.571299
-0.30215	0.338471
-0.362107	-0.58759
-0.312122	0.33058
-0.372068	-0.594081
-0.322091	0.339107
-0.382094	-0.604518
-0.33209	0.346489
-0.392116	-0.62781
-0.342162	0.344453
-0.402115	-0.641937
-0.352119	0.364435
-0.412072	-0.665483
-0.36216	0.36889
-0.422095	-0.688393
-0.372102	0.372326
-0.432078	-0.713848
-0.382101	0.384545
-0.442104	-0.74974
-0.392143	0.402236
-0.452081	-0.769213
-0.402142	0.423237
-0.462103	-0.807778
-0.412076	0.431637
-0.472049	-0.849397
-0.422106	0.454165
-0.482056	-0.898526
-0.432067	0.469947
-0.492051	-0.964201
-0.442097	0.509148
-0.502096	-1.04108
-0.452073	0.548986
-0.512046	-1.13386
-0.462046	0.582968
-0.52211	-1.24904
-0.472117	0.639097
-0.532086	-1.39694
-0.48209	0.727554
-0.542089	-1.56138
-0.492074	0.822502
-0.552073	-1.76846
-0.50205	0.962251
-0.562015	-2.01232
-0.512049	1.10938
-0.572037	-2.26929
-0.52206	1.30526
-0.582071	-2.55337
-0.532067	1.51068
-0.592039	-2.84343
-0.542085	1.73342
-0.602073	-3.14164
-0.552042	1.96264
-0.612068	-3.42521
-0.562042	2.16883
-0.622045	-3.68396
-0.572018	2.353
-0.632048	-3.91739
-0.582082	2.50637
-0.642043	-4.10932
-0.5921	2.62346
-0.652027	-4.2604
-0.602046	2.69664
-0.662061	-4.37036
-0.612099	2.75863
-0.672033	-4.43489
-0.622018	2.78701
-0.682025	-4.44648
-0.632052	2.79083
-0.692062	-4.41478
-0.642066	2.76894
-0.702004	-4.336
-0.652016	2.72108
-0.712148	-4.23329
-0.662019	2.65846
-0.722106	-4.07317
-0.672026	2.56835
-0.732135	-3.88353
-0.682009	2.47353
-0.742096	-3.68371
-0.692043	2.34943
-0.752153	-3.47612
-0.702107	2.22088
-0.762125	-3.25746
-0.712145	2.08215
-0.77206	-3.064
-0.722132	1.94902
-0.782097	-2.89333
-0.732109	1.82455
-0.792108	-2.72379
-0.7421	1.69205
-0.802115	-2.58837
-0.752111	1.58094
-0.812072	-2.47179
-0.762076	1.48612
-0.822132	-2.36284
-0.772109	1.39397
-0.832105	-2.29029
-0.782124	1.3129
-0.842062	-2.21647
-0.792123	1.24837
-0.852134	-2.16658
-0.802096	1.20522
-0.862099	-2.13069
-0.812106	1.15826
-0.872132	-2.10421
-0.822083	1.11766
-0.882074	-2.07914
-0.832101	1.0894
-0.892112	-2.06539
-0.842161	1.06802
-0.902027	-2.06068
-0.852084	1.05644
-0.912118	-2.06348
-0.862079	1.046
-0.92209	-2.06679
-0.872098	1.03098
-0.932021	-2.06743
-0.882078	1.01405
-0.942115	-2.07634
-0.892077	1.02462
-0.952096	-2.07545
-0.902073	1.01202
-0.962099	-2.08181
-0.912003	1.01431
-0.972109	-2.08652
-0.922113	1.02016
-0.982021	-2.09569
-0.932108	1.0194
-0.992066	-2.09454
-0.94207	1.0222
-1.00205	-2.08678
-0.952076	1.04142
-1.01205	-2.09619
-0.962049	1.03391
-1.022	-2.08958
-0.972037	1.03671
-1.03206	-2.09849
-0.982066	1.03798
-1.04204	-2.10867
-0.992073	1.04765
-1.05208	-2.10409
-1.00206	1.04256
-1.06204	-2.10599
-1.01208	1.04091
-1.07207	-2.09938
-1.02206	1.04587
-1.08208	-2.11134
-1.03203	1.04409
-1.09206	-2.11872
-1.04205	1.04282
-1.10204	-2.13107
-1.05211	1.04727
-1.11207	-2.13565
-1.062	1.04218
-1.12212	-2.17103
-1.07203	1.04422