Folder: ElectrochemLabUtils/VFSWV_data_prep/Example_data/CoPc(OMe)8_VFSWV_txt_data (part 4)

File: CoPc(OMe)8_CNT_VFSWV_scans_19_18_C02.txt
Ewe/V	<I>/mA
-0.122068	-0.103559
-0.072114	0.247723
-0.132094	-0.264945
-0.0820827	0.221377
-0.142101	-0.278055
-0.0921048	0.214758
-0.152085	-0.280218
-0.102062	0.214631
-0.162107	-0.282891
-0.112084	0.212467
-0.172072	-0.287982
-0.122118	0.204958
-0.18206	-0.299183
-0.132144	0.204194
-0.192021	-0.307074
-0.142063	0.208904
-0.202039	-0.321838
-0.152127	0.208904
-0.21208	-0.327438
-0.162084	0.214249
-0.222053	-0.337747
-0.172091	0.21934
-0.23209	-0.349075
-0.182079	0.222013
-0.24207	-0.362312
-0.192036	0.222904
-0.252073	-0.386494
-0.202081	0.221504
-0.262065	-0.403931
-0.212065	0.232068
-0.27203	-0.40864
-0.222045	0.238686
-0.28214	-0.419204
-0.232021	0.255105
-0.292097	-0.431168
-0.242082	0.254214
-0.302127	-0.445423
-0.25202	0.264396
-0.312099	-0.450005
-0.26205	0.270124
-0.322117	-0.46846
-0.27198	0.268214
-0.332121	-0.488188
-0.282109	0.268469
-0.342101	-0.490097
-0.29217	0.277251
-0.352119	-0.509952
-0.30215	0.270124
-0.362126	-0.511988
-0.312069	0.288833
-0.372087	-0.521661
-0.322125	0.295324
-0.38212	-0.53808
-0.332113	0.291124
-0.392143	-0.548644
-0.34212	0.304743
-0.402085	-0.568117
-0.352054	0.309706
-0.41205	-0.585809
-0.36208	0.318234
-0.422121	-0.615718
-0.372114	0.318488
-0.43212	-0.639646
-0.38209	0.327398
-0.442104	-0.653519
-0.392116	0.352471
-0.452096	-0.680757
-0.402115	0.355908
-0.462122	-0.718303
-0.412111	0.371817
-0.472091	-0.750504
-0.422087	0.392818
-0.48209	-0.804342
-0.432094	0.412036
-0.492074	-0.858561
-0.442112	0.427819
-0.502058	-0.928054
-0.452073	0.470329
-0.512061	-1.02071
-0.462072	0.504439
-0.522045	-1.12699
-0.472102	0.564386
-0.532067	-1.2563
-0.482071	0.635151
-0.542043	-1.41934
-0.49212	0.7343
-0.552073	-1.62718
-0.502115	0.843757
-0.562061	-1.83439
-0.512057	0.996488
-0.572052	-2.09632
-0.52203	1.17544
-0.582044	-2.37518
-0.532082	1.37615
-0.592081	-2.64628
-0.542108	1.6013
-0.602092	-2.93278
-0.552046	1.82989
-0.612068	-3.21584
-0.562015	2.03837
-0.621984	-3.47167
-0.572064	2.22814
-0.63204	-3.69618
-0.582029	2.38482
-0.64202	-3.88252
-0.592047	2.50815
-0.652023	-4.0425
-0.602031	2.59406
-0.662034	-4.14267
-0.612068	2.65961
-0.672052	-4.20236
-0.62206	2.67895
-0.68207	-4.22094
-0.632013	2.69308
-0.692047	-4.1778
-0.642024	2.66482
-0.702023	-4.09876
-0.652019	2.612
-0.71211	-3.98001
-0.662019	2.55613
-0.722125	-3.82537
-0.672033	2.46055
-0.732151	-3.63369
-0.68199	2.36114
-0.742085	-3.44265
-0.691993	2.23272
-0.752092	-3.23608
-0.70213	2.10303
-0.762129	-3.03702
-0.712118	1.97066
-0.772106	-2.83274
-0.722083	1.82378
-0.782105	-2.66716
-0.732166	1.69791
-0.792138	-2.51519
-0.742123	1.58438
-0.80208	-2.37646
-0.752107	1.46117
-0.81211	-2.26789
-0.762118	1.36864
-0.822125	-2.17587
-0.772132	1.27917
-0.832131	-2.09963
-0.782101	1.20764
-0.842119	-2.03039
-0.792085	1.1454
-0.852118	-2.0043
-0.802054	1.09678
-0.862003	-1.95123
-0.812122	1.05274
-0.872079	-1.92577
-0.822106	1.01469
-0.88207	-1.91075
-0.832097	0.992797
-0.892123	-1.90426
-0.842115	0.96836
-0.90216	-1.89777
-0.852061	0.949015
-0.91211	-1.89026
-0.862091	0.942651
-0.922063	-1.89904
-0.872147	0.933996
-0.932074	-1.90223
-0.882147	0.925978
-0.942085	-1.90961
-0.8921	0.921777
-0.952069	-1.91648
-0.902103	0.914904
-0.962041	-1.91839
-0.912102	0.914395
-0.972048	-1.91635
-0.922098	0.919486
-0.982101	-1.93023
-0.932086	0.925468
-0.9921	-1.9259
-0.942085	0.928396
-1.00207	-1.92323
-0.952103	0.938323
-1.01204	-1.92386
-0.962037	0.942396
-1.02207	-1.92819
-0.972079	0.946724
-1.03199	-1.93137
-0.982024	0.945705
-1.04207	-1.92654
-0.992085	0.944178
-1.05204	-1.92895
-1.00203	0.947869
-1.06206	-1.94194
-1.012	0.946724
-1.07203	-1.94346
-1.02203	0.940869
-1.08205	-1.94181
-1.03203	0.94876
-1.09206	-1.95199
-1.04203	0.949778
-1.10206	-1.95568
-1.05205	0.943796
-1.11197	-1.97452
-1.06203	0.943414
-1.12207	-2.00519
-1.07205	0.938705

File: CoPc(OMe)8_CNT_VFSWV_scans_20_19_C02.txt
Ewe/V	<I>/mA
-0.12208	-0.0886679
-0.072114	0.225768
-0.132056	-0.251709
-0.0820941	0.211545
-0.142082	-0.254954
-0.0920323	0.196749
-0.152051	-0.262782
-0.102108	0.194362
-0.16208	-0.267459
-0.112126	0.19694
-0.172045	-0.273473
-0.122064	0.187776
-0.18206	-0.287601
-0.132056	0.189971
-0.192059	-0.291801
-0.142109	0.196367
-0.202024	-0.298101
-0.15207	0.192931
-0.212061	-0.31261
-0.16205	0.198085
-0.222064	-0.324065
-0.172087	0.201235
-0.232029	-0.338193
-0.182063	0.211354
-0.242059	-0.351079
-0.192089	0.210686
-0.25202	-0.351461
-0.202047	0.219754
-0.262042	-0.368357
-0.212046	0.226054
-0.27203	-0.392508
-0.22206	0.224145
-0.28214	-0.401863
-0.23206	0.228918
-0.292128	-0.411504
-0.242051	0.236268
-0.302184	-0.419999
-0.25207	0.245527
-0.312088	-0.421718
-0.262008	0.250491
-0.322137	-0.437277
-0.272083	0.256887
-0.332113	-0.452169
-0.282143	0.252687
-0.342101	-0.463528
-0.292158	0.257937
-0.352104	-0.475651
-0.302157	0.268246
-0.362095	-0.482142
-0.312141	0.272065
-0.372091	-0.493406
-0.32214	0.269869
-0.382132	-0.511161
-0.332121	0.277315
-0.392085	-0.520707
-0.342135	0.288006
-0.402119	-0.530443
-0.352134	0.29192
-0.412095	-0.552971
-0.362114	0.296979
-0.422087	-0.570249
-0.372098	0.307861
-0.432082	-0.599172
-0.382109	0.309197
-0.44212	-0.627523
-0.392101	0.319602
-0.452023	-0.652724
-0.402115	0.334207
-0.46211	-0.685466
-0.412137	0.347476
-0.472041	-0.717062
-0.422079	0.371435
-0.482059	-0.767654
-0.43209	0.387377
-0.492081	-0.814524
-0.442082	0.409523
-0.50205	-0.894612
-0.452119	0.443028
-0.512065	-0.969928
-0.462088	0.479397
-0.522106	-1.08018
-0.472052	0.535908
-0.532055	-1.21373
-0.482025	0.596141
-0.542055	-1.36712
-0.492055	0.688353
-0.552027	-1.55899
-0.502084	0.809106
-0.562076	-1.77434
-0.51208	0.957828
-0.572049	-2.01977
-0.522003	1.13385
-0.582025	-2.28542
-0.532059	1.34109
-0.592074	-2.56798
-0.542055	1.55959
-0.601985	-2.86103
-0.552042	1.78411
-0.611984	-3.13308
-0.562042	1.99201
-0.622037	-3.38499
-0.572045	2.1834
-0.632074	-3.61247
-0.582017	2.35303
-0.642013	-3.79708
-0.59207	2.47903
-0.651981	-3.94485
-0.602012	2.57067
-0.662057	-4.0531
-0.612068	2.63759
-0.671991	-4.1077
-0.622033	2.66622
-0.682009	-4.12116
-0.632032	2.66202
-0.691993	-4.07849
-0.642024	2.64809
-0.702035	-4.00098
-0.651974	2.59454
-0.712122	-3.88337
-0.662011	2.52867
-0.722102	-3.7274
-0.672052	2.44419
-0.732097	-3.53591
-0.682017	2.32735
-0.742108	-3.34662
-0.69199	2.2108
-0.752126	-3.14501
-0.702142	2.06475
-0.762049	-2.9393
-0.712152	1.94323
-0.772094	-2.74896
-0.722121	1.79671
-0.782105	-2.57218
-0.73212	1.66832
-0.792077	-2.43109
-0.742108	1.53668
-0.802103	-2.29659
-0.752107	1.4333
-0.812091	-2.18242
-0.76208	1.3262
-0.822094	-2.09289
-0.772075	1.24716
-0.832132	-2.02521
-0.782063	1.17986
-0.84202	-1.95104
-0.792054	1.114
-0.852164	-1.90474
-0.802046	1.06102
-0.86208	-1.87839
-0.812068	1.02283
-0.872067	-1.84661
-0.822117	0.984556
-0.88207	-1.83076
-0.832051	0.959928
-0.89202	-1.82618
-0.842096	0.934537
-0.902126	-1.82121
-0.852042	0.928046
-0.912068	-1.82198
-0.862064	0.912009
-0.922067	-1.82255
-0.872132	0.90065
-0.932086	-1.82351
-0.881998	0.892822
-0.94205	-1.83725
-0.892081	0.894827
-0.95208	-1.83534
-0.902084	0.886426
-0.962068	-1.83515
-0.912091	0.8996
-0.972029	-1.83716
-0.922052	0.899218
-0.982051	-1.84451
-0.932067	0.902272
-0.992047	-1.84517
-0.942054	0.905613
-1.00205	-1.84718
-0.952053	0.912486
-1.01205	-1.84212
-0.962041	0.917927
-1.02204	-1.84708
-0.971999	0.915636
-1.03204	-1.84957
-0.981994	0.919932
-1.04205	-1.84288
-0.992081	0.918214
-1.05205	-1.84489
-1.00202	0.924323
-1.06203	-1.8552
-1.01206	0.925659
-1.07209	-1.85892
-1.02205	0.918595
-1.08204	-1.86102
-1.03207	0.921555
-1.09203	-1.8573
-1.04211	0.9248
-1.10209	-1.88403
-1.05205	0.91955
-1.11201	-1.89873
-1.06202	0.925659
-1.12212	-1.91524
-1.07199	0.93005

File: CoPc(OMe)8_CNT_VFSWV_scans_21_20_C02.txt
Ewe/V	<I>/mA
-0.122045	-0.0669037
-0.0721026	0.21059
-0.132083	-0.201116
-0.0820865	0.193312
-0.142059	-0.215339
-0.0920629	0.174889
-0.152047	-0.214576
-0.102058	0.183862
-0.162073	-0.216389
-0.112061	0.177085
-0.172026	-0.231567
-0.122061	0.172885
-0.182029	-0.243881
-0.132044	0.167539
-0.19204	-0.252377
-0.142078	0.167825
-0.202005	-0.247222
-0.152031	0.174794
-0.212027	-0.257245
-0.162084	0.171357
-0.222064	-0.275287
-0.172064	0.175271
-0.232052	-0.288364
-0.182033	0.177467
-0.242036	-0.293232
-0.19207	0.189303
-0.252024	-0.30841
-0.202062	0.192071
-0.262046	-0.315092
-0.212042	0.202763
-0.272049	-0.326929
-0.22203	0.20219
-0.282155	-0.339816
-0.232052	0.204958
-0.292089	-0.351175
-0.242021	0.214504
-0.302115	-0.364062
-0.252035	0.21689
-0.312084	-0.373321
-0.262	0.223095
-0.322137	-0.378571
-0.272037	0.227104
-0.332086	-0.389931
-0.282121	0.233404
-0.342108	-0.405967
-0.292143	0.2356
-0.352096	-0.415895
-0.302127	0.236268
-0.362099	-0.420954
-0.312141	0.2377
-0.372102	-0.434414
-0.322148	0.247055
-0.382109	-0.446632
-0.332067	0.252878
-0.39212	-0.462573
-0.34215	0.253832
-0.402077	-0.473742
-0.352092	0.25555
-0.412107	-0.486438
-0.362122	0.26481
-0.422083	-0.505052
-0.372091	0.271014
-0.432067	-0.527675
-0.382113	0.278365
-0.44207	-0.546767
-0.392112	0.287719
-0.452073	-0.569963
-0.4021	0.297647
-0.462061	-0.602227
-0.41205	0.312347
-0.472064	-0.640887
-0.422102	0.325234
-0.48209	-0.673438
-0.432109	0.352439
-0.492028	-0.72909
-0.442085	0.364658
-0.50202	-0.786841
-0.452088	0.397113
-0.51208	-0.857193
-0.462088	0.427946
-0.521995	-0.957423
-0.472018	0.478156
-0.532075	-1.08448
-0.482021	0.53944
-0.542024	-1.23138
-0.492062	0.62411
-0.552042	-1.40865
-0.50205	0.727109
-0.562034	-1.62305
-0.512053	0.863135
-0.572056	-1.86064
-0.522045	1.02723
-0.581952	-2.11656
-0.53204	1.22396
-0.592043	-2.39453
-0.542074	1.44227
-0.602061	-2.66763
-0.552012	1.66106
-0.612068	-2.93549
-0.562023	1.87441
-0.622033	-3.18301
-0.572033	2.06866
-0.632059	-3.40427
-0.582044	2.23476
-0.642066	-3.59213
-0.592024	2.37088
-0.651977	-3.73589
-0.602035	2.46252
-0.662038	-3.83631
-0.612068	2.528
-0.672041	-3.89187
-0.622068	2.56771
-0.682086	-3.89779
-0.632067	2.56743
-0.692012	-3.85894
-0.642016	2.5385
-0.702031	-3.77465
-0.652023	2.49507
-0.712137	-3.65265
-0.662015	2.42854
-0.722144	-3.49391
-0.672033	2.33356
-0.732109	-3.32161
-0.682021	2.22273
-0.7421	-3.12535
-0.692013	2.09921
-0.7521	-2.92308
-0.702096	1.95583
-0.762129	-2.72109
-0.712103	1.82429
-0.772113	-2.54001
-0.722129	1.69313
-0.782109	-2.36971
-0.73204	1.56503
-0.792081	-2.22968
-0.74207	1.44055
-0.802107	-2.10319
-0.752115	1.33536
-0.812053	-2.00516
-0.762034	1.23819
-0.822071	-1.92183
-0.772113	1.15056
-0.832143	-1.84842
-0.782097	1.0823
-0.842066	-1.7899
-0.792119	1.02818
-0.852126	-1.74895
-0.802107	0.983984
-0.862091	-1.72146
-0.812106	0.934919
-0.872151	-1.69884
-0.822117	0.907618
-0.882112	-1.68061
-0.832059	0.884231
-0.892047	-1.66715
-0.842108	0.869626
-0.90205	-1.66419
-0.852046	0.847671
-0.912049	-1.66361
-0.862129	0.835452
-0.92206	-1.66772
-0.872128	0.834689
-0.93207	-1.67154
-0.882047	0.819988
-0.942092	-1.6723
-0.892073	0.820752
-0.952057	-1.68519
-0.902069	0.812543
-0.962095	-1.69158
-0.912064	0.825238
-0.972098	-1.69225
-0.922052	0.816265
-0.982101	-1.69216
-0.932059	0.829629
-0.992043	-1.69149
-0.941978	0.827529
-1.00207	-1.69177
-0.952008	0.829916
-1.01195	-1.69664
-0.96203	0.834784
-1.02206	-1.6933
-0.972067	0.837266
-1.03209	-1.69664
-0.98204	0.842516
-1.04203	-1.69874
-0.99205	0.841848
-1.052	-1.70132
-1.00208	0.838984
-1.06209	-1.70122
-1.01204	0.843471
-1.07206	-1.70504
-1.02204	0.842325
-1.08206	-1.70667
-1.03203	0.834116
-1.09201	-1.71936
-1.04209	0.839366
-1.10204	-1.73273
-1.05205	0.847575
-1.11203	-1.74475
-1.062	0.846239
-1.12212	-1.76451
-1.07203	0.848816

File: CoPc(OMe)8_CNT_VFSWV_scans_22_21_C02.txt
Ewe/V	<I>/mA
-0.122061	-0.0672855
-0.0720988	0.171166
-0.132037	-0.186607
-0.0820865	0.157325
-0.142089	-0.194243
-0.092101	0.149784
-0.152058	-0.202835
-0.102047	0.15217
-0.162099	-0.202739
-0.11205	0.151502
-0.17203	-0.20503
-0.122072	0.137375
-0.182044	-0.214194
-0.132125	0.142816
-0.192021	-0.218012
-0.142074	0.147302
-0.202077	-0.22899
-0.152035	0.138425
-0.212012	-0.237008
-0.162034	0.143102
-0.222041	-0.244549
-0.17206	0.149879
-0.232037	-0.254381
-0.182033	0.156466
-0.242013	-0.274714
-0.192036	0.15933
-0.252047	-0.281778
-0.202039	0.153029
-0.262046	-0.291514
-0.212034	0.159425
-0.271992	-0.300296
-0.222026	0.171071
-0.282113	-0.313183
-0.232018	0.175653
-0.292147	-0.320342
-0.24204	0.177848
-0.302104	-0.332179
-0.252054	0.18033
-0.312122	-0.345447
-0.262011	0.183576
-0.322091	-0.343729
-0.272007	0.194076
-0.332105	-0.355471
-0.28214	0.190067
-0.342078	-0.363393
-0.292093	0.197131
-0.352111	-0.36893
-0.302169	0.206676
-0.362061	-0.379621
-0.312103	0.197417
-0.372091	-0.388594
-0.322118	0.200758
-0.382109	-0.40549
-0.332098	0.214599
-0.392166	-0.413699
-0.342104	0.213167
-0.402085	-0.427063
-0.352104	0.211736
-0.412057	-0.435654
-0.362065	0.223286
-0.422098	-0.452455
-0.372106	0.228059
-0.432056	-0.479183
-0.382052	0.234454
-0.442104	-0.497606
-0.392074	0.242186
-0.452088	-0.516125
-0.402104	0.252114
-0.46211	-0.554403
-0.412008	0.271205
-0.472018	-0.579413
-0.422098	0.28476
-0.482124	-0.616259
-0.432059	0.296311
-0.492101	-0.654442
-0.442097	0.313588
-0.502077	-0.717539
-0.452085	0.342416
-0.512046	-0.787032
-0.462103	0.365326
-0.522041	-0.86903
-0.47206	0.417541
-0.532044	-0.98921
-0.482052	0.469374
-0.542078	-1.13249
-0.492051	0.537817
-0.552058	-1.30135
-0.502039	0.642534
-0.56203	-1.49943
-0.512038	0.767964
-0.572041	-1.72776
-0.521999	0.919836
-0.581987	-1.97375
-0.532048	1.10951
-0.592051	-2.24418
-0.542047	1.31312
-0.602069	-2.50755
-0.552042	1.53009
-0.612057	-2.77054
-0.562042	1.74621
-0.622045	-3.01681
-0.572029	1.94247
-0.632021	-3.22367
-0.582009	2.10866
-0.642035	-3.41726
-0.59202	2.23972
-0.652004	-3.55128
-0.602042	2.33995
-0.661961	-3.6559
-0.612053	2.41479
-0.672041	-3.70983
-0.622033	2.45154
-0.682017	-3.70449
-0.63201	2.45507
-0.692032	-3.66401
-0.642032	2.43178
-0.702038	-3.58288
-0.652008	2.37966
-0.712118	-3.46145
-0.66203	2.30893
-0.72206	-3.29994
-0.672083	2.21595
-0.732128	-3.12019
-0.681987	2.1037
-0.742085	-2.93119
-0.692028	1.98046
-0.752096	-2.73063
-0.702126	1.83775
-0.762099	-2.54392
-0.712106	1.70631
-0.772079	-2.36312
-0.722106	1.57601
-0.782101	-2.2103
-0.732093	1.4501
-0.792032	-2.061
-0.742116	1.33689
-0.802099	-1.95018
-0.752077	1.22597
-0.812091	-1.84823
-0.762114	1.13337
-0.822083	-1.77148
-0.772094	1.04909
-0.832109	-1.70657
-0.782143	0.985606
-0.842119	-1.66495
-0.792031	0.929382
-0.852115	-1.61999
-0.802103	0.888431
-0.862083	-1.59021
-0.812087	0.84328
-0.872075	-1.57684
-0.822037	0.821134
-0.882082	-1.55393
-0.832048	0.792783
-0.8921	-1.55451
-0.842104	0.781233
-0.902099	-1.54448
-0.852138	0.755746
-0.912049	-1.54573
-0.862091	0.753359
-0.922037	-1.54496
-0.872079	0.745436
-0.932108	-1.5546
-0.882067	0.743623
-0.94205	-1.55775
-0.892085	0.733791
-0.952053	-1.55813
-0.902065	0.738086
-0.962003	-1.56482
-0.912057	0.727395
-0.972098	-1.56358
-0.922082	0.748395
-0.982043	-1.56758
-0.932063	0.743336
-0.991989	-1.57331
-0.942062	0.743814
-1.00203	-1.58104
-0.952061	0.750305
-1.01206	-1.57045
-0.962049	0.755937
-1.02202	-1.57188
-0.972056	0.755173
-1.03204	-1.57283
-0.982063	0.753646
-1.04206	-1.57474
-0.992066	0.759468
-1.05206	-1.57474
-1.00209	0.761759
-1.06206	-1.57436
-1.01203	0.76195
-1.07203	-1.58467
-1.02206	0.760709
-1.08202	-1.58362
-1.03199	0.760041
-1.09205	-1.58878
-1.04205	0.762905
-1.10202	-1.60052
-1.05204	0.7525
-1.11201	-1.61808
-1.06204	0.757941
-1.12211	-1.64385
-1.07199	0.755459

File: CoPc(OMe)8_CNT_VFSWV_scans_23_22_C02.txt
Ewe/V	<I>/mA
-0.122072	-0.0634672
-0.0720415	0.15723
-0.132083	-0.155965
-0.0820827	0.140334
-0.142063	-0.167706
-0.0920667	0.137947
-0.152093	-0.168947
-0.102085	0.128402
-0.162065	-0.183266
-0.112088	0.131361
-0.171984	-0.175916
-0.122045	0.133938
-0.182006	-0.186893
-0.132064	0.134224
-0.192002	-0.191093
-0.142025	0.131361
-0.202005	-0.197203
-0.152073	0.130788
-0.212034	-0.216867
-0.162061	0.125156
-0.222026	-0.222403
-0.172018	0.137375
-0.232033	-0.223644
-0.18204	0.136515
-0.242032	-0.234431
-0.192005	0.130024
-0.252028	-0.247604
-0.202058	0.137947
-0.262027	-0.264404
-0.212061	0.13957
-0.271995	-0.265264
-0.221988	0.154461
-0.282071	-0.275477
-0.231995	0.149211
-0.292112	-0.290941
-0.242024	0.159998
-0.30213	-0.29581
-0.25197	0.167157
-0.312115	-0.309365
-0.262019	0.163816
-0.322171	-0.313088
-0.271992	0.172885
-0.33209	-0.321106
-0.282105	0.173362
-0.342082	-0.326642
-0.292101	0.173171
-0.352077	-0.33552
-0.302134	0.172121
-0.362095	-0.342393
-0.312099	0.182621
-0.372075	-0.350029
-0.322045	0.181476
-0.382056	-0.366162
-0.332098	0.186058
-0.392112	-0.372175
-0.342127	0.179757
-0.402127	-0.38258
-0.352085	0.18854
-0.412057	-0.404154
-0.362095	0.199135
-0.422064	-0.409595
-0.372083	0.201426
-0.432052	-0.426682
-0.382105	0.213358
-0.442093	-0.453028
-0.392074	0.217558
-0.452069	-0.466105
-0.402077	0.228727
-0.462126	-0.495411
-0.412084	0.229395
-0.472041	-0.526243
-0.422064	0.245146
-0.482132	-0.557076
-0.432071	0.258414
-0.492051	-0.595927
-0.442078	0.27636
-0.50205	-0.65301
-0.452031	0.29612
-0.51203	-0.706562
-0.462038	0.32237
-0.522056	-0.795432
-0.472075	0.361985
-0.532059	-0.901485
-0.482059	0.405895
-0.542032	-1.03789
-0.492028	0.472334
-0.552062	-1.20198
-0.502054	0.563781
-0.56203	-1.37772
-0.512042	0.683771
-0.57201	-1.59899
-0.522049	0.826002
-0.58201	-1.83754
-0.532055	1.00231
-0.592074	-2.09422
-0.542032	1.20879
-0.60205	-2.35186
-0.552035	1.42137
-0.61203	-2.61141
-0.56203	1.6287
-0.622083	-2.84318
-0.572033	1.82639
-0.632036	-3.05777
-0.582052	1.99678
-0.642058	-3.23274
-0.591994	2.12956
-0.652012	-3.37869
-0.602046	2.23886
-0.662042	-3.47424
-0.612015	2.31446
-0.67201	-3.52446
-0.621995	2.34978
-0.681987	-3.5194
-0.632048	2.3453
-0.69197	-3.47444
-0.642001	2.32029
-0.702008	-3.39005
-0.651951	2.2738
-0.71208	-3.26548
-0.661992	2.21309
-0.722067	-3.10864
-0.671995	2.10436
-0.732124	-2.93004
-0.682002	1.99573
-0.742089	-2.74238
-0.69199	1.87593
-0.75205	-2.54144
-0.702107	1.73752
-0.762087	-2.36761
-0.712049	1.60827
-0.772125	-2.19741
-0.722109	1.47158
-0.782131	-2.04115
-0.73212	1.35369
-0.792016	-1.90474
-0.742062	1.23895
-0.802084	-1.80556
-0.752088	1.13824
-0.812026	-1.70991
-0.761999	1.05033
-0.822128	-1.63841
-0.77206	0.973674
-0.83204	-1.57809
-0.782055	0.910768
-0.842066	-1.53647
-0.792081	0.852253
-0.852103	-1.4959
-0.802027	0.811779
-0.862064	-1.46659
-0.812019	0.777128
-0.872094	-1.4475
-0.82209	0.744386
-0.882055	-1.44005
-0.832105	0.723863
-0.892054	-1.4285
-0.842058	0.716035
-0.902027	-1.42259
-0.852126	0.703817
-0.912076	-1.42535
-0.862072	0.684248
-0.922067	-1.4286
-0.872079	0.683103
-0.932036	-1.43414
-0.882009	0.68358
-0.942028	-1.42965
-0.892035	0.676516
-0.952057	-1.44235
-0.902065	0.681575
-0.962022	-1.44664
-0.912011	0.675944
-0.972033	-1.44425
-0.922033	0.678234
-0.982024	-1.44702
-0.932017	0.684248
-0.991997	-1.44626
-0.942058	0.69093
-1.00201	-1.4453
-0.951989	0.690262
-1.01201	-1.44502
-0.962049	0.697326
-1.02204	-1.44225
-0.97201	0.695226
-1.03202	-1.45208
-0.982009	0.698949
-1.04204	-1.44874
-0.992039	0.694367
-1.05205	-1.45323
-1.00201	0.686157
-1.06201	-1.45685
-1.01205	0.699712
-1.07202	-1.45953
-1.02206	0.696849
-1.08204	-1.46239
-1.03203	0.693699
-1.09205	-1.4705
-1.04202	0.706681
-1.10205	-1.48015
-1.05204	0.698853
-1.112	-1.49313
-1.06202	0.701717
-1.12217	-1.51661
-1.07205	0.693317

File: CoPc(OMe)8_CNT_VFSWV_scans_24_23_C02.txt
Ewe/V	<I>/mA
-0.122068	-0.0466668
-0.0721407	0.140429
-0.132063	-0.139069
-0.0820903	0.130311
-0.142105	-0.148233
-0.0920934	0.122006
-0.152062	-0.149856
-0.102081	0.120956
-0.16208	-0.154915
-0.112073	0.11771
-0.172072	-0.159402
-0.12208	0.114656
-0.182086	-0.162361
-0.132067	0.11962
-0.19199	-0.171716
-0.142059	0.114847
-0.202047	-0.173529
-0.152073	0.117901
-0.212042	-0.186607
-0.162042	0.114751
-0.222049	-0.192048
-0.172053	0.11981
-0.232094	-0.204457
-0.182067	0.122006
-0.242078	-0.204362
-0.192021	0.128974
-0.252047	-0.211426
-0.202031	0.135084
-0.262023	-0.221353
-0.212038	0.132315
-0.272007	-0.231376
-0.222053	0.139856
-0.282121	-0.250659
-0.232075	0.135943
-0.292158	-0.2561
-0.242021	0.147684
-0.302172	-0.260873
-0.252062	0.149307
-0.312122	-0.273568
-0.262027	0.151884
-0.322118	-0.285596
-0.272056	0.153889
-0.332147	-0.288555
-0.282117	0.151407
-0.342131	-0.290082
-0.292139	0.16248
-0.3521	-0.304305
-0.302131	0.158089
-0.362114	-0.312133
-0.312168	0.160571
-0.372102	-0.30841
-0.322121	0.162384
-0.382075	-0.325974
-0.332136	0.169066
-0.392108	-0.337525
-0.342154	0.17403
-0.402085	-0.344588
-0.352157	0.173648
-0.412114	-0.363107
-0.362099	0.175844
-0.422087	-0.375994
-0.372144	0.182908
-0.43214	-0.388594
-0.382143	0.18959
-0.44207	-0.405108
-0.392104	0.195508
-0.452134	-0.425345
-0.402077	0.199422
-0.462141	-0.445773
-0.412099	0.209158
-0.472072	-0.471165
-0.42206	0.218799
-0.482094	-0.497892
-0.43209	0.229777
-0.492066	-0.539607
-0.442097	0.241805
-0.502088	-0.588768
-0.452073	0.268151
-0.512049	-0.648142
-0.462099	0.290201
-0.521995	-0.716107
-0.472091	0.326093
-0.532055	-0.824356
-0.482082	0.366853
-0.542047	-0.952173
-0.492043	0.423937
-0.552077	-1.09154
-0.502107	0.505362
-0.562053	-1.27558
-0.512026	0.611605
-0.572075	-1.4811
-0.522079	0.760328
-0.582086	-1.70619
-0.532071	0.927187
-0.59202	-1.95438
-0.542055	1.11562
-0.602092	-2.20667
-0.552084	1.31026
-0.612064	-2.45199
-0.562072	1.5236
-0.622006	-2.68033
-0.572022	1.72005
-0.632044	-2.88308
-0.582059	1.88567
-0.642035	-3.0571
-0.592062	2.01931
-0.651993	-3.20467
-0.602031	2.1393
-0.662003	-3.29459
-0.612038	2.19992
-0.671991	-3.33182
-0.622048	2.24392
-0.682048	-3.3344
-0.632116	2.25223
-0.692032	-3.28486
-0.642032	2.23142
-0.702027	-3.20372
-0.652016	2.18216
-0.712137	-3.08421
-0.66203	2.11515
-0.722151	-2.92117
-0.672045	2.01778
-0.732112	-2.73674
-0.682025	1.91001
-0.7421	-2.55366
-0.692024	1.7822
-0.7521	-2.37487
-0.702084	1.64197
-0.762103	-2.19827
-0.712148	1.50613
-0.772109	-2.03532
-0.722102	1.3828
-0.78209	-1.89357
-0.732074	1.26291
-0.792066	-1.76938
-0.742108	1.15275
-0.802096	-1.66256
-0.752122	1.05834
-0.812091	-1.57665
-0.762049	0.974629
-0.822109	-1.51212
-0.772113	0.897309
-0.832082	-1.45638
-0.782139	0.837648
-0.842081	-1.41571
-0.792112	0.792306
-0.85213	-1.37868
-0.802038	0.744195
-0.862068	-1.3509
-0.812068	0.717467
-0.872071	-1.33467
-0.82209	0.685203
-0.882067	-1.32226
-0.832139	0.658952
-0.89207	-1.33018
-0.842066	0.653225
-0.902103	-1.31453
-0.852038	0.634992
-0.91203	-1.31825
-0.86208	0.636711
-0.922056	-1.32073
-0.872098	0.632415
-0.932097	-1.32885
-0.882093	0.626783
-0.942138	-1.33257
-0.892112	0.621342
-0.952027	-1.33572
-0.902084	0.618287
-0.962068	-1.34278
-0.91208	0.61466
-0.97204	-1.34192
-0.922067	0.622583
-0.982043	-1.3404
-0.932009	0.621533
-0.992085	-1.3424
-0.942054	0.625256
-1.00204	-1.34145
-0.95208	0.62621
-1.01201	-1.34087
-0.962041	0.630697
-1.02206	-1.34441
-0.972056	0.632797
-1.03207	-1.34049
-0.98207	0.638333
-1.04204	-1.34947
-0.991997	0.63442
-1.0521	-1.34794
-1.00203	0.633751
-1.062	-1.35204
-1.01209	0.634802
-1.07203	-1.35682
-1.02202	0.640338
-1.08207	-1.35586
-1.032	0.640529
-1.09206	-1.36102
-1.04207	0.632701
-1.10202	-1.38001
-1.05207	0.639956
-1.11204	-1.39758
-1.06205	0.638906
-1.12211	-1.40894
-1.07205	0.640433