Folder: ElectrochemLabUtils/VFSWV_data_prep/Example_data/CoPc(OMe)8_VFSWV_txt_data (part 6)

File: CoPc(OMe)8_CNT_VFSWV_scans_31_30_C02.txt
Ewe/V	<I>/mA
-0.122083	-0.028339
-0.0720338	0.0515395
-0.132075	-0.060489
-0.0821018	0.0331354
-0.14207	-0.0627036
-0.0921277	0.0406956
-0.152077	-0.0603362
-0.102104	0.03787
-0.162107	-0.0669037
-0.112073	0.0404665
-0.172057	-0.0713329
-0.122083	0.0329826
-0.182075	-0.0759148
-0.132079	0.0375646
-0.192021	-0.079504
-0.142101	0.0345863
-0.202062	-0.0783585
-0.152138	0.0359609
-0.212076	-0.0816423
-0.162065	0.0336699
-0.222079	-0.0833987
-0.172068	0.0380991
-0.232063	-0.0872933
-0.182063	0.0417647
-0.242074	-0.0930971
-0.192074	0.0419174
-0.252016	-0.101879
-0.202008	0.0329826
-0.262031	-0.100046
-0.212076	0.0414592
-0.272022	-0.107454
-0.222068	0.0329063
-0.282136	-0.108294
-0.23206	0.0376409
-0.29215	-0.11677
-0.242089	0.0413829
-0.302157	-0.121811
-0.252035	0.0395501
-0.312126	-0.123796
-0.262111	0.0426811
-0.32216	-0.125782
-0.272037	0.0380228
-0.332128	-0.131815
-0.282147	0.0360373
-0.342154	-0.146095
-0.292166	0.039321
-0.352131	-0.142048
-0.302115	0.040161
-0.362072	-0.143651
-0.312164	0.0375646
-0.372102	-0.141666
-0.322175	0.041001
-0.382109	-0.149837
-0.332155	0.0470339
-0.392078	-0.148615
-0.342108	0.0474157
-0.402165	-0.152357
-0.352108	0.047263
-0.412095	-0.159077
-0.362137	0.0494776
-0.422106	-0.164499
-0.372091	0.0489431
-0.43204	-0.172441
-0.382086	0.0470339
-0.442089	-0.176641
-0.392097	0.0467285
-0.452073	-0.181605
-0.402176	0.0497831
-0.462114	-0.190158
-0.412122	0.0545941
-0.472071	-0.196267
-0.422053	0.0528377
-0.482078	-0.208715
-0.432067	0.0636816
-0.492058	-0.216275
-0.442078	0.0590997
-0.502123	-0.232846
-0.452149	0.0639871
-0.512068	-0.250487
-0.46211	0.0704018
-0.522083	-0.280422
-0.47211	0.0730746
-0.532075	-0.313107
-0.482101	0.0880423
-0.542055	-0.362286
-0.492059	0.110188
-0.552054	-0.422233
-0.50205	0.127294
-0.56208	-0.501348
-0.51203	0.154251
-0.572052	-0.600318
-0.522052	0.20282
-0.582063	-0.717692
-0.532075	0.260476
-0.592055	-0.850568
-0.54207	0.345089
-0.60205	-0.993983
-0.552077	0.445357
-0.612057	-1.13931
-0.562072	0.562197
-0.622014	-1.28853
-0.572052	0.690186
-0.632025	-1.41216
-0.582094	0.821535
-0.64202	-1.52633
-0.592078	0.931959
-0.651993	-1.61965
-0.602035	1.03253
-0.662011	-1.66646
-0.612011	1.10989
-0.672083	-1.687
-0.622045	1.16045
-0.682017	-1.67455
-0.631994	1.16342
-0.692035	-1.61995
-0.642066	1.15174
-0.702046	-1.53992
-0.65205	1.11768
-0.712129	-1.44721
-0.662003	1.07087
-0.722083	-1.34038
-0.671976	0.99351
-0.732116	-1.22682
-0.682025	0.908821
-0.7421	-1.1209
-0.691978	0.82688
-0.752073	-1.01117
-0.702145	0.735623
-0.762167	-0.924719
-0.71211	0.649177
-0.772087	-0.857976
-0.722117	0.571437
-0.782078	-0.791003
-0.73212	0.502479
-0.792089	-0.738005
-0.742077	0.450397
-0.802073	-0.700968
-0.752138	0.401829
-0.812076	-0.668894
-0.762118	0.361355
-0.822094	-0.641937
-0.772136	0.317139
-0.832089	-0.62422
-0.782059	0.297055
-0.842062	-0.612995
-0.792089	0.271778
-0.852054	-0.614217
-0.802057	0.25597
-0.862068	-0.599478
-0.812091	0.239323
-0.872056	-0.601005
-0.822071	0.229472
-0.882074	-0.603984
-0.832112	0.221682
-0.892081	-0.609482
-0.842093	0.212977
-0.902046	-0.602838
-0.85208	0.213358
-0.912049	-0.61078
-0.862141	0.20282
-0.922041	-0.611926
-0.872136	0.205875
-0.932086	-0.6175
-0.882025	0.199307
-0.94207	-0.61498
-0.892112	0.197016
-0.952111	-0.616584
-0.902042	0.199689
-0.962053	-0.617806
-0.912102	0.204882
-0.972075	-0.617348
-0.922075	0.202285
-0.982059	-0.610551
-0.93207	0.211755
-0.992058	-0.621395
-0.942112	0.210456
-1.00208	-0.611162
-0.952065	0.209693
-1.01207	-0.615591
-0.962037	0.205645
-1.02203	-0.614446
-0.972102	0.209846
-1.03205	-0.617729
-0.982059	0.202973
-1.04207	-0.616049
-0.992039	0.203049
-1.05209	-0.614522
-1.00205	0.207249
-1.06209	-0.614446
-1.0121	0.205035
-1.07211	-0.624373
-1.02206	0.208089
-1.08209	-0.629261
-1.03202	0.20954
-1.09207	-0.631933
-1.04204	0.212442
-1.10204	-0.64209
-1.05208	0.204958
-1.11207	-0.653621
-1.06206	0.203354
-1.12216	-0.666374
-1.07203	0.202973

File: CoPc(OMe)8_CNT_VFSWV_scans_32_31_C02.txt
Ewe/V	<I>/mA
-0.122167	-0.0302482
-0.0721483	0.0457993
-0.132079	-0.0517578
-0.0820789	0.0441448
-0.142082	-0.058758
-0.0920819	0.0362536
-0.152062	-0.0642309
-0.102085	0.0367627
-0.162103	-0.0641672
-0.112099	0.0330081
-0.172045	-0.0600308
-0.122041	0.0339627
-0.18209	-0.0658855
-0.132125	0.0348536
-0.192036	-0.0727584
-0.14207	0.0326263
-0.202077	-0.072822
-0.1521	0.0312262
-0.212061	-0.0770858
-0.162092	0.0352354
-0.222041	-0.0791858
-0.172144	0.0366991
-0.232079	-0.0845951
-0.182075	0.03619
-0.242116	-0.0887315
-0.192093	0.0339627
-0.252047	-0.0906407
-0.202031	0.0404537
-0.262027	-0.0942044
-0.21205	0.0270261
-0.272018	-0.101714
-0.222026	0.0333263
-0.282163	-0.101714
-0.232052	0.0424902
-0.292143	-0.114378
-0.242055	0.0394355
-0.302153	-0.110432
-0.252062	0.0366991
-0.31216	-0.108968
-0.262042	0.043572
-0.322205	-0.123287
-0.272087	0.0426811
-0.332121	-0.115396
-0.28214	0.0372082
-0.342139	-0.122651
-0.29212	0.0395628
-0.352146	-0.128251
-0.302188	0.0403901
-0.36216	-0.130287
-0.312149	0.0399446
-0.372133	-0.134296
-0.322098	0.0450993
-0.382109	-0.138497
-0.332143	0.0480267
-0.392101	-0.142697
-0.342127	0.0450357
-0.402069	-0.146515
-0.35218	0.0429356
-0.412099	-0.149251
-0.36216	0.0440811
-0.422133	-0.152688
-0.372117	0.03829
-0.432136	-0.159306
-0.382094	0.0482176
-0.442112	-0.16217
-0.392112	0.0457993
-0.452142	-0.17687
-0.402142	0.0494267
-0.462099	-0.180943
-0.412091	0.0512722
-0.47211	-0.184634
-0.422133	0.0564905
-0.482109	-0.196534
-0.432124	0.0540723
-0.492097	-0.206271
-0.442074	0.0618361
-0.502138	-0.221799
-0.452107	0.0608179
-0.512126	-0.236117
-0.46213	0.0686454
-0.522075	-0.252791
-0.472068	0.0738637
-0.532067	-0.289128
-0.48214	0.0796548
-0.542093	-0.328838
-0.492039	0.0969644
-0.552062	-0.382739
-0.502111	0.110074
-0.562126	-0.454778
-0.512103	0.143166
-0.572087	-0.547626
-0.522114	0.17823
-0.582113	-0.657401
-0.532063	0.235314
-0.592089	-0.780477
-0.542039	0.315752
-0.602081	-0.913926
-0.552035	0.404973
-0.612068	-1.05673
-0.562107	0.508575
-0.622056	-1.19107
-0.572026	0.634133
-0.632051	-1.31186
-0.582063	0.755555
-0.642051	-1.41826
-0.592058	0.86673
-0.652	-1.50156
-0.602077	0.958624
-0.662026	-1.55527
-0.612045	1.02646
-0.672071	-1.56832
-0.622075	1.07082
-0.682048	-1.5533
-0.632055	1.0873
-0.692043	-1.51079
-0.642032	1.08011
-0.702031	-1.43404
-0.652035	1.05077
-0.712175	-1.34355
-0.661984	0.994198
-0.722121	-1.2388
-0.672067	0.920123
-0.732177	-1.13144
-0.68204	0.850312
-0.742116	-1.02828
-0.692032	0.765355
-0.752096	-0.9285
-0.7021	0.67518
-0.76208	-0.853216
-0.712106	0.59996
-0.772144	-0.786268
-0.722132	0.526521
-0.782063	-0.726194
-0.732177	0.453719
-0.792108	-0.685657
-0.742081	0.410064
-0.802077	-0.648683
-0.752115	0.368699
-0.812137	-0.618709
-0.762148	0.327461
-0.822155	-0.595418
-0.772144	0.301879
-0.832089	-0.583263
-0.782132	0.27706
-0.842127	-0.566653
-0.792131	0.257014
-0.852195	-0.565253
-0.802107	0.228822
-0.862083	-0.559717
-0.812064	0.217686
-0.872086	-0.563853
-0.822094	0.210049
-0.882128	-0.556726
-0.83212	0.207313
-0.892077	-0.553099
-0.842115	0.20674
-0.902138	-0.561562
-0.852122	0.204194
-0.912087	-0.565062
-0.862095	0.190703
-0.922128	-0.570599
-0.872102	0.189558
-0.93207	-0.577217
-0.882093	0.189367
-0.942058	-0.570472
-0.892104	0.18714
-0.952095	-0.576008
-0.902076	0.19204
-0.962118	-0.572508
-0.912144	0.189049
-0.972067	-0.572126
-0.922125	0.190385
-0.982066	-0.577854
-0.932093	0.191276
-0.9921	-0.565953
-0.942104	0.193885
-1.00204	-0.574354
-0.952015	0.191785
-1.01208	-0.57079
-0.962125	0.192421
-1.02208	-0.574608
-0.972082	0.188667
-1.03204	-0.575372
-0.982078	0.191785
-1.04206	-0.578172
-0.992134	0.185676
-1.05206	-0.575945
-1.00207	0.193249
-1.06206	-0.578172
-1.01206	0.192803
-1.07204	-0.58269
-1.02206	0.183258
-1.08208	-0.584918
-1.03201	0.192103
-1.09206	-0.590836
-1.04205	0.186185
-1.10209	-0.599618
-1.05203	0.184658
-1.11203	-0.605473
-1.06203	0.184021
-1.12214	-0.621382
-1.07206	0.183321

File: CoPc(OMe)8_CNT_VFSWV_scans_33_32_C02.txt
Ewe/V	<I>/mA
-0.12208	-0.0333028
-0.0720911	0.0382901
-0.132094	-0.0557034
-0.0821132	0.0321172
-0.142067	-0.0639127
-0.0921124	0.0342172
-0.152066	-0.06334
-0.102096	0.0228896
-0.162103	-0.0637218
-0.112073	0.0312899
-0.172057	-0.0742221
-0.122045	0.026517
-0.18206	-0.0728857
-0.132079	0.0298262
-0.192032	-0.0696401
-0.142082	0.0211714
-0.202073	-0.0796949
-0.152081	0.0228896
-0.212031	-0.0825587
-0.162088	0.024226
-0.222068	-0.0779767
-0.17211	0.0233987
-0.232044	-0.0864406
-0.182025	0.0265806
-0.242036	-0.0834496
-0.192028	0.0232078
-0.252005	-0.093759
-0.202047	0.0204078
-0.262023	-0.0977045
-0.212103	0.0277261
-0.272049	-0.0978318
-0.222099	0.0253079
-0.282121	-0.0987864
-0.232102	0.0260715
-0.292131	-0.110368
-0.242067	0.0288716
-0.302131	-0.110114
-0.252054	0.023526
-0.312126	-0.109096
-0.262076	0.0248624
-0.322129	-0.116223
-0.272014	0.0309717
-0.332121	-0.11425
-0.282132	0.0282989
-0.342158	-0.119087
-0.29212	0.0298262
-0.352085	-0.12526
-0.302153	0.0312899
-0.362145	-0.124751
-0.312137	0.0307808
-0.372083	-0.131751
-0.322114	0.0304626
-0.38214	-0.130733
-0.332132	0.0312899
-0.39212	-0.135951
-0.342158	0.0349809
-0.402081	-0.137987
-0.352111	0.0342172
-0.41213	-0.154088
-0.362107	0.0356173
-0.422083	-0.15046
-0.372133	0.033199
-0.432109	-0.150524
-0.382147	0.0386719
-0.442097	-0.162679
-0.392097	0.0349809
-0.452062	-0.165352
-0.402069	0.0380355
-0.462088	-0.176807
-0.41213	0.0415356
-0.472102	-0.179225
-0.422053	0.03549
-0.482059	-0.183043
-0.432044	0.0432538
-0.492059	-0.194498
-0.442066	0.0415992
-0.502077	-0.205444
-0.452069	0.0455448
-0.512088	-0.223772
-0.462023	0.0480267
-0.522083	-0.239745
-0.472068	0.0540087
-0.532094	-0.261954
-0.482082	0.0635544
-0.542051	-0.303892
-0.492123	0.0727182
-0.552058	-0.352257
-0.502084	0.0897096
-0.562088	-0.422068
-0.512084	0.113574
-0.572071	-0.496397
-0.522041	0.14902
-0.582067	-0.5895
-0.532094	0.19484
-0.592032	-0.709712
-0.542058	0.256314
-0.602031	-0.830242
-0.552027	0.337262
-0.612084	-0.957773
-0.562057	0.438192
-0.62206	-1.07932
-0.572068	0.544531
-0.632017	-1.20081
-0.582025	0.652588
-0.642016	-1.29518
-0.592077	0.763064
-0.652042	-1.37358
-0.602054	0.85483
-0.662019	-1.41781
-0.612091	0.911468
-0.672041	-1.43754
-0.622087	0.960024
-0.682051	-1.41781
-0.632067	0.97517
-0.69202	-1.37225
-0.642036	0.967215
-0.702016	-1.30091
-0.652065	0.93495
-0.712118	-1.21913
-0.662034	0.893586
-0.722167	-1.12285
-0.672003	0.823775
-0.732086	-1.02243
-0.682017	0.750909
-0.742127	-0.932827
-0.692035	0.672825
-0.752115	-0.84787
-0.702069	0.592641
-0.762148	-0.770168
-0.712087	0.518567
-0.772136	-0.710666
-0.722109	0.454101
-0.782135	-0.664911
-0.732112	0.397972
-0.792085	-0.625328
-0.742158	0.348398
-0.802092	-0.603754
-0.752122	0.309897
-0.812141	-0.582117
-0.762076	0.274578
-0.822109	-0.554817
-0.772102	0.244159
-0.832074	-0.540816
-0.78212	0.219404
-0.842177	-0.538462
-0.792058	0.209986
-0.852061	-0.527071
-0.802099	0.189558
-0.862118	-0.527198
-0.812114	0.180585
-0.872113	-0.526116
-0.822102	0.17333
-0.882151	-0.528471
-0.83207	0.169321
-0.892127	-0.52198
-0.842054	0.162321
-0.902065	-0.529234
-0.852111	0.163721
-0.912102	-0.532862
-0.862049	0.166775
-0.922052	-0.532607
-0.872098	0.154302
-0.932044	-0.537253
-0.882124	0.16213
-0.942096	-0.531398
-0.892092	0.156657
-0.952099	-0.53668
-0.902111	0.161748
-0.96206	-0.532862
-0.91206	0.162575
-0.972037	-0.530253
-0.922071	0.15863
-0.982059	-0.53248
-0.932086	0.155066
-0.9921	-0.536234
-0.942043	0.163657
-1.00204	-0.524843
-0.95205	0.171803
-1.01205	-0.52548
-0.962102	0.16843
-1.02206	-0.531525
-0.97214	0.173394
-1.03206	-0.52287
-0.982017	0.162702
-1.04207	-0.524398
-0.992024	0.16563
-1.05206	-0.532862
-1.00203	0.160666
-1.06206	-0.529871
-1.01207	0.164039
-1.07202	-0.540371
-1.02204	0.159075
-1.08207	-0.54298
-1.03201	0.163848
-1.09209	-0.552844
-1.04206	0.165248
-1.10208	-0.557044
-1.05205	0.160412
-1.11198	-0.564235
-1.06203	0.158693
-1.12212	-0.573781
-1.07206	0.156848

File: CoPc(OMe)8_CNT_VFSWV_scans_34_33_C02.txt
Ewe/V	<I>/mA
-0.12208	-0.0176478
-0.0720873	0.0490449
-0.132098	-0.0472395
-0.082075	0.0394355
-0.142055	-0.0464759
-0.0920743	0.0390537
-0.152047	-0.0434849
-0.1021	0.0324353
-0.162073	-0.0497214
-0.112092	0.034599
-0.17206	-0.0555125
-0.12211	0.03549
-0.182102	-0.0576125
-0.132048	0.0312262
-0.192002	-0.0569761
-0.142078	0.0328808
-0.202031	-0.0583762
-0.152054	0.0355536
-0.212061	-0.0657582
-0.162065	0.0345354
-0.222064	-0.06684
-0.172064	0.0343445
-0.231991	-0.0683037
-0.182029	0.0303989
-0.242063	-0.0755585
-0.192059	0.0339627
-0.252016	-0.0763221
-0.20205	0.0328172
-0.262019	-0.0818586
-0.212057	0.0349809
-0.27198	-0.0796313
-0.221999	0.0352991
-0.282098	-0.0859951
-0.232063	0.0394355
-0.292128	-0.090577
-0.242028	0.0388628
-0.3021	-0.0934408
-0.252039	0.0328808
-0.312126	-0.0956045
-0.262023	0.0372718
-0.32214	-0.0990409
-0.272022	0.0333899
-0.332124	-0.103686
-0.282151	0.0293807
-0.342112	-0.0998046
-0.292112	0.0405174
-0.3521	-0.110178
-0.3021	0.0372718
-0.362088	-0.111832
-0.312141	0.0326899
-0.372064	-0.112023
-0.322114	0.0336445
-0.382059	-0.113296
-0.33209	0.0332626
-0.392139	-0.121696
-0.342101	0.0415356
-0.402088	-0.124114
-0.352111	0.0388628
-0.412069	-0.131242
-0.362111	0.0319899
-0.422018	-0.127487
-0.372087	0.0365718
-0.432048	-0.138687
-0.382143	0.0400719
-0.442066	-0.142124
-0.392085	0.0408992
-0.452119	-0.143969
-0.402088	0.0415356
-0.46208	-0.151351
-0.412042	0.042872
-0.472056	-0.147342
-0.422072	0.0381628
-0.48212	-0.16007
-0.432101	0.0436356
-0.492024	-0.170825
-0.442066	0.054645
-0.502142	-0.181516
-0.4521	0.0494903
-0.512076	-0.193162
-0.462099	0.0512086
-0.522098	-0.210408
-0.472094	0.0584633
-0.532094	-0.232681
-0.482075	0.0681363
-0.542047	-0.265073
-0.492085	0.0778093
-0.552027	-0.310001
-0.502081	0.087355
-0.562015	-0.367785
-0.512076	0.103455
-0.572045	-0.440459
-0.52206	0.133493
-0.582032	-0.525989
-0.532055	0.17683
-0.592013	-0.623482
-0.542055	0.229395
-0.602035	-0.744713
-0.552058	0.296915
-0.612019	-0.853661
-0.562053	0.389318
-0.622049	-0.972855
-0.572056	0.48452
-0.632021	-1.07869
-0.582036	0.585387
-0.642047	-1.16797
-0.592028	0.687398
-0.651985	-1.23511
-0.602061	0.770637
-0.662022	-1.27507
-0.612023	0.83243
-0.672003	-1.29652
-0.62206	0.87074
-0.681971	-1.27908
-0.632063	0.892122
-0.69199	-1.22932
-0.642066	0.880858
-0.702	-1.16867
-0.652019	0.858203
-0.712091	-1.08906
-0.661996	0.811938
-0.722163	-0.997229
-0.672029	0.746964
-0.732128	-0.907181
-0.682029	0.685871
-0.742108	-0.829224
-0.692032	0.612369
-0.752157	-0.750122
-0.702111	0.540522
-0.762064	-0.686229
-0.712103	0.473702
-0.772106	-0.635128
-0.722037	0.412546
-0.782082	-0.597263
-0.732078	0.364244
-0.792051	-0.563281
-0.742142	0.320589
-0.802054	-0.53528
-0.752103	0.285588
-0.812095	-0.512943
-0.762141	0.253387
-0.822102	-0.500215
-0.772071	0.233086
-0.832093	-0.490288
-0.782074	0.210877
-0.84207	-0.475842
-0.792108	0.194522
-0.852096	-0.476097
-0.802122	0.183958
-0.862076	-0.47196
-0.812072	0.175366
-0.872075	-0.473233
-0.822064	0.170657
-0.882036	-0.478387
-0.832086	0.157548
-0.892058	-0.480551
-0.842077	0.159266
-0.902061	-0.474569
-0.852073	0.154048
-0.912049	-0.480297
-0.862125	0.153284
-0.922067	-0.483924
-0.872125	0.154111
-0.93204	-0.48647
-0.882051	0.149657
-0.942085	-0.487233
-0.892096	0.152011
-0.952084	-0.481378
-0.902069	0.152584
-0.962026	-0.483669
-0.912026	0.156466
-0.972029	-0.48316
-0.922029	0.156339
-0.982124	-0.48596
-0.932047	0.150802
-0.992066	-0.476542
-0.94202	0.154366
-1.00202	-0.479469
-0.952023	0.155575
-1.01205	-0.480297
-0.962018	0.15252
-1.02204	-0.481188
-0.972037	0.159139
-1.03204	-0.482906
-0.982024	0.154302
-1.04205	-0.481315
-0.992031	0.155893
-1.05202	-0.480106
-1.00204	0.156784
-1.06204	-0.483669
-1.012	0.152584
-1.07204	-0.488442
-1.02204	0.152075
-1.08204	-0.490161
-1.03201	0.159521
-1.09201	-0.494997
-1.04203	0.156911
-1.10203	-0.501361
-1.05203	0.152966
-1.11199	-0.514916
-1.06206	0.156911
-1.12216	-0.52077
-1.07203	0.155257

File: CoPc(OMe)8_CNT_VFSWV_scans_35_34_C02.txt
Ewe/V	<I>/mA
-0.122068	-0.0142114
-0.0720606	0.0464994
-0.132037	-0.0340028
-0.0821017	0.0429993
-0.142105	-0.0430394
-0.0920399	0.0385446
-0.152062	-0.0408757
-0.102074	0.0374628
-0.162054	-0.0452667
-0.112073	0.0372718
-0.172083	-0.0434849
-0.12211	0.0346627
-0.182041	-0.0477486
-0.132064	0.0417901
-0.192013	-0.0464122
-0.142112	0.0319899
-0.20207	-0.0532215
-0.152012	0.0348536
-0.21205	-0.0581853
-0.162084	0.039181
-0.222057	-0.0598399
-0.172057	0.0359354
-0.232021	-0.0606035
-0.182079	0.0372718
-0.242097	-0.0586944
-0.192025	0.0380355
-0.252028	-0.0730766
-0.202047	0.0396901
-0.262004	-0.076513
-0.212069	0.0358082
-0.271992	-0.0800131
-0.222045	0.0347263
-0.282124	-0.0842132
-0.23196	0.0339627
-0.292162	-0.0777222
-0.242013	0.0400083
-0.302153	-0.0814132
-0.252001	0.0362536
-0.312099	-0.0827496
-0.262004	0.0369537
-0.322148	-0.0900043
-0.271984	0.0429356
-0.332113	-0.0926771
-0.28209	0.0424902
-0.342078	-0.0957954
-0.292139	0.0400719
-0.352134	-0.0989773
-0.30213	0.0330717
-0.362149	-0.100505
-0.312107	0.0360627
-0.37206	-0.104132
-0.322186	0.0408992
-0.38214	-0.104068
-0.332105	0.0406447
-0.392108	-0.10865
-0.342146	0.0365082
-0.402073	-0.11476
-0.352069	0.0379082
-0.412114	-0.117496
-0.362114	0.0432538
-0.42214	-0.11355
-0.372079	0.0448448
-0.432056	-0.114696
-0.382086	0.0464994
-0.442066	-0.124114
-0.392074	0.0439538
-0.452058	-0.124242
-0.4021	0.0440811
-0.46208	-0.131178
-0.412107	0.0429356
-0.472056	-0.138878
-0.422075	0.051654
-0.482052	-0.145306
-0.432052	0.0552178
-0.492005	-0.155042
-0.442047	0.0506358
-0.502062	-0.163888
-0.452058	0.0564269
-0.512	-0.173116
-0.462049	0.0573815
-0.522075	-0.186543
-0.472079	0.0616452
-0.532094	-0.208562
-0.482159	0.0633634
-0.542051	-0.235417
-0.492062	0.0767911
-0.552073	-0.267555
-0.502084	0.0848095
-0.562026	-0.323938
-0.512049	0.0958825
-0.572033	-0.390312
-0.522037	0.124901
-0.582029	-0.469542
-0.532029	0.158566
-0.592051	-0.55959
-0.542081	0.211131
-0.60205	-0.66262
-0.552054	0.259687
-0.61203	-0.765968
-0.562046	0.344453
-0.622037	-0.873898
-0.572098	0.436155
-0.632048	-0.968337
-0.582002	0.527858
-0.642016	-1.06188
-0.592036	0.61816
-0.652035	-1.11999
-0.602027	0.70019
-0.662038	-1.15779
-0.612087	0.760137
-0.672045	-1.16714
-0.62198	0.796283
-0.682021	-1.1478
-0.63204	0.812129
-0.691993	-1.10987
-0.642062	0.810093
-0.701974	-1.04648
-0.651996	0.787756
-0.712076	-0.975019
-0.661973	0.742127
-0.722109	-0.892671
-0.672022	0.680844
-0.732128	-0.812551
-0.681994	0.624715
-0.742039	-0.744013
-0.69202	0.559231
-0.752157	-0.674138
-0.702069	0.489484
-0.762083	-0.619982
-0.712118	0.430301
-0.772106	-0.576517
-0.722109	0.379199
-0.782055	-0.544189
-0.732151	0.331152
-0.792104	-0.518479
-0.742073	0.288897
-0.802126	-0.48736
-0.752126	0.254659
-0.812099	-0.469414
-0.762106	0.233532
-0.822083	-0.45796
-0.772071	0.207631
-0.832089	-0.453569
-0.782101	0.188476
-0.842089	-0.441032
-0.792093	0.177976
-0.852073	-0.440268
-0.802061	0.165757
-0.862095	-0.431168
-0.812087	0.162512
-0.872136	-0.43435
-0.822098	0.151948
-0.882089	-0.435368
-0.832059	0.148702
-0.892066	-0.442814
-0.84207	0.141193
-0.902057	-0.440332
-0.852069	0.143866
-0.912083	-0.439696
-0.862087	0.142784
-0.922041	-0.442877
-0.87206	0.140175
-0.932066	-0.443896
-0.882105	0.143929
-0.942092	-0.445168
-0.89207	0.142911
-0.952004	-0.44415
-0.902118	0.141447
-0.962003	-0.444532
-0.912079	0.14202
-0.972018	-0.438423
-0.922067	0.143547
-0.982066	-0.439823
-0.932032	0.14622
-0.992069	-0.446505
-0.942047	0.141002
-1.00205	-0.436768
-0.952004	0.142975
-1.01204	-0.440205
-0.962064	0.142656
-1.02206	-0.443196
-0.97204	0.142275
-1.03204	-0.449687
-0.982078	0.143802
-1.04201	-0.444087
-0.99202	0.134193
-1.05206	-0.443959
-1.00206	0.142147
-1.06201	-0.448541
-1.01201	0.141956
-1.07201	-0.451723
-1.022	0.144566
-1.08202	-0.452105
-1.03202	0.138265
-1.09199	-0.461205
-1.04199	0.143484
-1.10206	-0.470369
-1.05205	0.128402
-1.11203	-0.475778
-1.06204	0.132411
-1.12214	-0.481951
-1.07203	0.136738

File: CoPc(OMe)8_CNT_VFSWV_scans_36_35_C02.txt
Ewe/V	<I>/mA
-0.122122	-0.000847363
-0.0720949	0.0631089
-0.132075	-0.0206388
-0.0821285	0.0569996
-0.142044	-0.0226116
-0.092059	0.0522904
-0.152054	-0.0235025
-0.10207	0.0474539
-0.162054	-0.0274481
-0.112103	0.0500631
-0.17208	-0.0296118
-0.12206	0.0474539
-0.182098	-0.0334301
-0.132113	0.0573178
-0.192078	-0.0318391
-0.142074	0.0527995
-0.202073	-0.0357847
-0.152043	0.0480267
-0.212054	-0.0319664
-0.162065	0.0517177
-0.222015	-0.0378211
-0.172099	0.0466266
-0.232033	-0.0477486
-0.182048	0.048154
-0.242036	-0.0474941
-0.19204	0.0419174
-0.252035	-0.0504851
-0.202005	0.0505722
-0.262034	-0.0502941
-0.212046	0.0526723
-0.271995	-0.0551306
-0.222053	0.0471994
-0.282128	-0.0597126
-0.232075	0.0466266
-0.292082	-0.0583762
-0.242036	0.0469448
-0.302138	-0.0637218
-0.252012	0.0522268
-0.312134	-0.0641672
-0.26205	0.0553451
-0.322106	-0.0576125
-0.272037	0.0558542
-0.332128	-0.0643582
-0.282182	0.0490449
-0.342093	-0.0705947
-0.292086	0.0571906
-0.352142	-0.0697674
-0.3021	0.0536268
-0.362103	-0.0770858
-0.31213	0.0534995
-0.372106	-0.0760039
-0.322137	0.0541359
-0.382128	-0.0764494
-0.332098	0.0512722
-0.392059	-0.0794404
-0.342116	0.057636
-0.402081	-0.086186
-0.352123	0.0527995
-0.412095	-0.0945226
-0.36213	0.0549632
-0.422052	-0.0968772
-0.372125	0.0559814
-0.432033	-0.0963681
-0.382101	0.0540087
-0.442089	-0.103114
-0.392101	0.0552814
-0.452035	-0.103241
-0.402123	0.0554723
-0.46208	-0.119087
-0.412122	0.0575087
-0.472049	-0.110496
-0.42206	0.0566178
-0.482098	-0.120105
-0.432052	0.0573178
-0.492055	-0.123096
-0.442059	0.0618998
-0.502027	-0.135251
-0.452031	0.0627907
-0.512072	-0.145751
-0.462072	0.0655908
-0.522037	-0.161406
-0.472037	0.0735455
-0.532105	-0.178079
-0.482117	0.0710637
-0.542081	-0.201753
-0.492059	0.0837276
-0.552039	-0.230581
-0.502104	0.0892005
-0.562061	-0.280028
-0.512068	0.107019
-0.572083	-0.339211
-0.522049	0.120065
-0.582025	-0.407749
-0.532075	0.153602
-0.59202	-0.492388
-0.54207	0.190703
-0.602042	-0.586763
-0.552081	0.24995
-0.612095	-0.683493
-0.562061	0.316516
-0.622033	-0.778314
-0.57201	0.399245
-0.632025	-0.876953
-0.582055	0.486493
-0.642009	-0.946636
-0.592093	0.57005
-0.652061	-1.01047
-0.602042	0.642788
-0.662049	-1.04871
-0.612072	0.696244
-0.671968	-1.05317
-0.622033	0.735
-0.682036	-1.03236
-0.632055	0.750018
-0.691997	-1.00073
-0.642005	0.749127
-0.70197	-0.939318
-0.651996	0.72189
-0.712129	-0.874407
-0.662042	0.685171
-0.722129	-0.798041
-0.672045	0.633179
-0.732158	-0.725621
-0.682017	0.57565
-0.742043	-0.652056
-0.69202	0.517676
-0.752111	-0.604582
-0.702164	0.452765
-0.762076	-0.550999
-0.712103	0.388427
-0.772148	-0.50817
-0.722125	0.349862
-0.78212	-0.480551
-0.732051	0.308688
-0.792066	-0.457323
-0.742081	0.271587
-0.802073	-0.436514
-0.752122	0.234232
-0.812091	-0.426586
-0.762057	0.213104
-0.822113	-0.411886
-0.772132	0.196685
-0.832109	-0.404822
-0.782101	0.181221
-0.842009	-0.406986
-0.792085	0.171675
-0.852103	-0.399031
-0.802176	0.161112
-0.862072	-0.399858
-0.812076	0.153666
-0.872071	-0.393303
-0.822041	0.147238
-0.882089	-0.403931
-0.83212	0.148829
-0.8921	-0.392221
-0.842131	0.143993
-0.902107	-0.399667
-0.852096	0.139347
-0.912087	-0.405713
-0.86203	0.137184
-0.922147	-0.40304
-0.872083	0.13852
-0.932112	-0.40304
-0.882112	0.13922
-0.942092	-0.403485
-0.892089	0.137247
-0.952034	-0.405713
-0.902088	0.134129
-0.962091	-0.404249
-0.912091	0.138965
-0.972044	-0.402913
-0.922094	0.134893
-0.982082	-0.398331
-0.932063	0.14342
-0.992066	-0.401704
-0.942062	0.138775
-1.00202	-0.401704
-0.952061	0.134956
-1.01208	-0.402404
-0.962064	0.146793
-1.02205	-0.399985
-0.972048	0.138265
-1.03205	-0.399285
-0.982032	0.143229
-1.04196	-0.398522
-0.992066	0.139856
-1.052	-0.402913
-1.00204	0.137693
-1.062	-0.411058
-1.012	0.135784
-1.07202	-0.408704
-1.02206	0.143038
-1.08201	-0.409404
-1.03203	0.137247
-1.09202	-0.415513
-1.04206	0.144375
-1.10203	-0.416786
-1.05206	0.131838
-1.11206	-0.424804
-1.06204	0.135656
-1.12209	-0.443387
-1.07202	0.133938