Folder: ElectrochemLabUtils/VFSWV_data_prep/Example_data/CoPc_VFSWV_txt_data (part 5)

File: CoPc_CNT_VFSWV_scans_25_24_C02.txt
Ewe/V	<I>/mA
-0.122299	-0.0208777
-0.0723257	0.0653044
-0.132294	-0.0354983
-0.0823439	0.0630134
-0.142297	-0.0396984
-0.092305	0.0567133
-0.15227	-0.0352119
-0.102297	0.0590042
-0.16241	-0.0442803
-0.112288	0.0593861
-0.172387	-0.0486714
-0.122295	0.0589088
-0.182428	-0.0547806
-0.132271	0.0577633
-0.192377	-0.0554488
-0.142305	0.0600543
-0.202434	-0.0553534
-0.152384	0.0563314
-0.21241	-0.0644218
-0.16241	0.0485994
-0.22239	-0.0706265
-0.172379	0.0548996
-0.232405	-0.0709129
-0.182336	0.0520359
-0.242354	-0.0757812
-0.192404	0.0529904
-0.25238	-0.0764494
-0.202392	0.0534677
-0.262353	-0.0757812
-0.212364	0.0567133
-0.272352	-0.0844678
-0.222341	0.0586224
-0.282397	-0.0887634
-0.232405	0.0569996
-0.292343	-0.0893361
-0.242377	0.0567133
-0.302392	-0.0868542
-0.252384	0.0591952
-0.312334	-0.101364
-0.262403	0.0667363
-0.322367	-0.103082
-0.272371	0.0632044
-0.332332	-0.116541
-0.282367	0.0663544
-0.342316	-0.121123
-0.292354	0.0638726
-0.352346	-0.137637
-0.302338	0.0746592
-0.362345	-0.141265
-0.312341	0.0808639
-0.37231	-0.159306
-0.322352	0.081914
-0.382321	-0.188611
-0.332279	0.0869732
-0.392305	-0.216771
-0.342301	0.0999553
-0.402327	-0.253809
-0.352319	0.110933
-0.412265	-0.323397
-0.362292	0.117615
-0.422302	-0.409976
-0.372344	0.155989
-0.43229	-0.52653
-0.382351	0.197608
-0.442278	-0.665802
-0.392343	0.263951
-0.452331	-0.857479
-0.402304	0.354826
-0.462299	-1.07741
-0.412299	0.494002
-0.472318	-1.33877
-0.422276	0.663439
-0.482305	-1.61264
-0.432321	0.879935
-0.492347	-1.92144
-0.442316	1.13471
-0.502292	-2.23111
-0.452266	1.39254
-0.512257	-2.53017
-0.462311	1.64397
-0.522295	-2.80719
-0.472279	1.88281
-0.532313	-3.05328
-0.482309	2.07191
-0.542282	-3.27512
-0.492293	2.2401
-0.552231	-3.44914
-0.5023	2.35255
-0.562295	-3.55997
-0.51233	2.43283
-0.572352	-3.62974
-0.52231	2.47808
-0.582359	-3.63509
-0.532271	2.48801
-0.592377	-3.576
-0.542308	2.45288
-0.602395	-3.44876
-0.552304	2.3894
-0.612288	-3.27149
-0.562257	2.29184
-0.622375	-3.03734
-0.572333	2.15839
-0.632374	-2.77139
-0.582343	2.00194
-0.64235	-2.48101
-0.5924	1.82391
-0.65233	-2.19312
-0.602327	1.64397
-0.66236	-1.92421
-0.612375	1.44762
-0.672352	-1.68605
-0.62234	1.26291
-0.682343	-1.48807
-0.632336	1.09366
-0.692312	-1.32111
-0.64232	0.942555
-0.702349	-1.19339
-0.652326	0.80987
-0.71233	-1.10805
-0.662307	0.698567
-0.722294	-1.02529
-0.672394	0.612465
-0.732332	-0.981574
-0.682305	0.550608
-0.742304	-0.943964
-0.692301	0.488084
-0.752326	-0.925349
-0.702281	0.440833
-0.762299	-0.905399
-0.712337	0.415918
-0.772298	-0.897285
-0.722367	0.394918
-0.782339	-0.890508
-0.732305	0.369335
-0.792335	-0.88688
-0.742308	0.363131
-0.802231	-0.885353
-0.752319	0.34633
-0.812303	-0.882585
-0.762303	0.348335
-0.822298	-0.880294
-0.772287	0.332393
-0.832301	-0.870748
-0.782309	0.328193
-0.842274	-0.861966
-0.792281	0.317502
-0.852315	-0.842779
-0.802273	0.30032
-0.86228	-0.824069
-0.812291	0.30137
-0.872351	-0.804978
-0.822348	0.282278
-0.882316	-0.786937
-0.832294	0.27216
-0.892312	-0.760113
-0.842274	0.259082
-0.902265	-0.740258
-0.852323	0.238273
-0.912261	-0.71458
-0.862287	0.227772
-0.922287	-0.692625
-0.872352	0.227391
-0.932248	-0.684416
-0.882313	0.214504
-0.942266	-0.655206
-0.892277	0.203908
-0.952257	-0.65826
-0.902322	0.196749
-0.962234	-0.629432
-0.912299	0.189112
-0.972248	-0.624469
-0.922267	0.182239
-0.98237	-0.619505
-0.932305	0.186153
-0.992396	-0.613205
-0.942247	0.184244
-1.00236	-0.609386
-0.952219	0.196653
-1.01236	-0.607286
-0.962245	0.196176
-1.02231	-0.618359
-0.97226	0.199517
-1.03236	-0.6154
-0.982312	0.201044
-1.04236	-0.622655
-0.992327	0.204576
-1.05233	-0.626187
-1.00237	0.219945
-1.06234	-0.637737
-1.01232	0.211258
-1.07235	-0.651483
-1.02236	0.226531
-1.08237	-0.667615
-1.03235	0.229682
-1.09237	-0.681457
-1.04234	0.233977
-1.10232	-0.698257
-1.05236	0.244191
-1.11229	-0.73014
-1.06236	0.250205
-1.12236	-0.742358
-1.07235	0.262805

File: CoPc_CNT_VFSWV_scans_26_25_C02.txt
Ewe/V	<I>/mA
-0.122348	-0.00243539
-0.0723218	0.0653999
-0.132317	-0.0242344
-0.0823134	0.0535632
-0.142316	-0.0259526
-0.0923394	0.060627
-0.152297	-0.0317755
-0.102331	0.0582406
-0.162391	-0.0299618
-0.112296	0.0565224
-0.172379	-0.0309164
-0.12228	0.0513677
-0.182436	-0.0334937
-0.13226	0.0591952
-0.192404	-0.0401757
-0.142316	0.0569042
-0.2024	-0.0434212
-0.152369	0.0604361
-0.212418	-0.0457122
-0.162372	0.054995
-0.222421	-0.0505805
-0.172417	0.053945
-0.232348	-0.0501987
-0.182378	0.0607225
-0.242366	-0.056117
-0.192381	0.0608179
-0.252354	-0.0545897
-0.202312	0.0586224
-0.262349	-0.0641354
-0.212387	0.0619634
-0.272371	-0.0600308
-0.222394	0.0623452
-0.282344	-0.0670946
-0.23237	0.0590997
-0.292343	-0.0733948
-0.242351	0.0672136
-0.302354	-0.0816995
-0.252361	0.0608179
-0.31233	-0.0867588
-0.262349	0.0579542
-0.322337	-0.080745
-0.272409	0.0690272
-0.332283	-0.0950635
-0.282363	0.0690272
-0.342312	-0.0933453
-0.292385	0.0672136
-0.352384	-0.108523
-0.302361	0.0680727
-0.362341	-0.112246
-0.312338	0.07065
-0.372341	-0.134296
-0.322375	0.0730364
-0.382328	-0.155297
-0.332321	0.0775229
-0.392301	-0.178493
-0.342351	0.0918415
-0.402346	-0.214099
-0.352327	0.0927961
-0.41233	-0.2624
-0.362345	0.106828
-0.422325	-0.336284
-0.372302	0.122674
-0.432294	-0.43575
-0.382328	0.160189
-0.442301	-0.558508
-0.392309	0.206581
-0.452296	-0.728612
-0.402323	0.283328
-0.462322	-0.922868
-0.412318	0.387472
-0.472314	-1.1576
-0.422279	0.546313
-0.48224	-1.41905
-0.43234	0.737609
-0.492305	-1.70208
-0.442297	0.963078
-0.502296	-1.99705
-0.452308	1.20802
-0.512269	-2.27864
-0.462315	1.46022
-0.522314	-2.54487
-0.472306	1.69495
-0.532282	-2.78705
-0.482267	1.89989
-0.542285	-2.99667
-0.492293	2.04728
-0.552323	-3.15885
-0.502292	2.18016
-0.562249	-3.27388
-0.512303	2.25576
-0.572378	-3.33325
-0.522283	2.31437
-0.582363	-3.33507
-0.532294	2.31628
-0.59235	-3.26853
-0.54232	2.29509
-0.602369	-3.14158
-0.552292	2.22445
-0.612379	-2.95544
-0.562269	2.12241
-0.622359	-2.74075
-0.572344	1.99277
-0.632401	-2.47481
-0.582351	1.83775
-0.642293	-2.19054
-0.592396	1.66851
-0.652395	-1.91648
-0.60233	1.48399
-0.662353	-1.67106
-0.612345	1.30424
-0.672329	-1.45733
-0.622371	1.12746
-0.682339	-1.28026
-0.632378	0.958878
-0.692358	-1.13621
-0.642373	0.829629
-0.702422	-1.0378
-0.652357	0.704962
-0.712368	-0.956468
-0.662322	0.605401
-0.722317	-0.904158
-0.672352	0.529894
-0.73232	-0.867502
-0.682381	0.469947
-0.742362	-0.83772
-0.692358	0.418973
-0.752281	-0.822733
-0.70238	0.385849
-0.762299	-0.805455
-0.712326	0.363512
-0.772302	-0.791328
-0.722306	0.340507
-0.782271	-0.794382
-0.732278	0.330675
-0.792274	-0.789609
-0.742323	0.313207
-0.802284	-0.7877
-0.752323	0.306906
-0.812291	-0.785027
-0.762356	0.292492
-0.822302	-0.780827
-0.772294	0.283901
-0.832343	-0.773668
-0.782332	0.281706
-0.842262	-0.768418
-0.79227	0.27426
-0.852277	-0.752858
-0.802284	0.265382
-0.86231	-0.745699
-0.812272	0.25956
-0.87229	-0.721548
-0.822283	0.247341
-0.882313	-0.699402
-0.832305	0.236459
-0.892281	-0.676779
-0.842308	0.220804
-0.902269	-0.657879
-0.852235	0.217081
-0.912299	-0.637642
-0.862291	0.201235
-0.922264	-0.617405
-0.87234	0.186535
-0.932267	-0.597359
-0.882301	0.184339
-0.942235	-0.577217
-0.892293	0.174507
-0.952261	-0.569676
-0.902254	0.164866
-0.962268	-0.563281
-0.912249	0.163434
-0.972229	-0.550776
-0.922256	0.157421
-0.982366	-0.537889
-0.932293	0.16353
-0.992346	-0.541803
-0.94227	0.159139
-1.0024	-0.539321
-0.952238	0.156275
-1.01236	-0.536171
-0.962283	0.164675
-1.02241	-0.544571
-0.972225	0.159521
-1.0324	-0.543998
-0.982389	0.167444
-1.04234	-0.54858
-0.99238	0.174507
-1.05232	-0.55994
-1.00233	0.179089
-1.06235	-0.560512
-1.01237	0.189303
-1.07239	-0.575881
-1.02232	0.177371
-1.08235	-0.582945
-1.03232	0.187776
-1.09233	-0.605759
-1.0423	0.197035
-1.10236	-0.609959
-1.05235	0.203908
-1.11232	-0.637069
-1.06235	0.205722
-1.12235	-0.665324
-1.07237	0.22195

File: CoPc_CNT_VFSWV_scans_27_26_C02.txt
Ewe/V	<I>/mA
-0.122318	0.00333022
-0.0723485	0.0697145
-0.132306	-0.0214661
-0.0823096	0.0607034
-0.142297	-0.0203206
-0.0923012	0.054976
-0.1523	-0.0269644
-0.102346	0.0561978
-0.162399	-0.0304009
-0.112323	0.0528377
-0.172425	-0.0348301
-0.122329	0.0536777
-0.182428	-0.0330737
-0.132294	0.0563505
-0.192366	-0.0356701
-0.142271	0.0475685
-0.202365	-0.0360519
-0.152415	0.0565796
-0.212418	-0.0410921
-0.162441	0.0578015
-0.22236	-0.0417794
-0.17239	0.0559687
-0.232367	-0.0414739
-0.182348	0.0508522
-0.242416	-0.0475832
-0.192385	0.0527613
-0.252323	-0.0457504
-0.202415	0.0523795
-0.26238	-0.0566707
-0.21238	0.0618489
-0.272394	-0.0553725
-0.222409	0.0590233
-0.28234	-0.0622454
-0.232359	0.0571906
-0.292354	-0.0669037
-0.242393	0.0568851
-0.302342	-0.0656818
-0.252354	0.0625361
-0.312334	-0.070722
-0.262391	0.0576487
-0.322341	-0.0753803
-0.272325	0.0603979
-0.332351	-0.0831696
-0.282351	0.0684927
-0.342343	-0.0805731
-0.292374	0.0594815
-0.352312	-0.0912643
-0.302315	0.0655908
-0.362349	-0.102643
-0.312368	0.0722346
-0.372371	-0.113716
-0.322329	0.0743728
-0.382347	-0.13548
-0.332286	0.0820858
-0.392373	-0.142506
-0.342343	0.0829258
-0.402334	-0.179925
-0.35235	0.0927006
-0.412368	-0.230708
-0.362334	0.0989626
-0.422283	-0.28447
-0.372344	0.117978
-0.432344	-0.376108
-0.382382	0.14272
-0.442324	-0.491421
-0.392335	0.179834
-0.452323	-0.635293
-0.402369	0.254214
-0.462368	-0.828117
-0.412341	0.347609
-0.472306	-1.04156
-0.422321	0.474834
-0.482313	-1.28173
-0.432275	0.652767
-0.492305	-1.55183
-0.442308	0.868729
-0.502292	-1.83294
-0.45235	1.10516
-0.512272	-2.10549
-0.462326	1.34586
-0.522291	-2.37139
-0.472318	1.57458
-0.532324	-2.60499
-0.482271	1.77366
-0.54235	-2.80881
-0.492331	1.94335
-0.552243	-2.9688
-0.502262	2.07431
-0.562303	-3.08266
-0.512265	2.1645
-0.572413	-3.13757
-0.522253	2.2146
-0.582382	-3.12695
-0.53234	2.21864
-0.592362	-3.06021
-0.542316	2.19612
-0.602346	-2.93184
-0.552288	2.12846
-0.612353	-2.75505
-0.562269	2.02093
-0.622348	-2.53787
-0.572363	1.88875
-0.63234	-2.27784
-0.582385	1.73907
-0.642343	-2.00476
-0.592339	1.56373
-0.652311	-1.74878
-0.602357	1.37908
-0.662288	-1.51564
-0.61236	1.2123
-0.672344	-1.31594
-0.622432	1.04086
-0.682385	-1.15114
-0.632378	0.889653
-0.692323	-1.02965
-0.642343	0.760137
-0.702357	-0.936709
-0.652315	0.650399
-0.712299	-0.857976
-0.662341	0.557538
-0.722302	-0.820633
-0.672352	0.481478
-0.73232	-0.787032
-0.682309	0.431612
-0.742308	-0.753355
-0.692343	0.38793
-0.752288	-0.741976
-0.702288	0.360133
-0.762329	-0.732125
-0.712337	0.340813
-0.772271	-0.731972
-0.722283	0.319278
-0.782294	-0.727543
-0.732278	0.30095
-0.792297	-0.728689
-0.742304	0.295604
-0.802242	-0.721281
-0.75225	0.282698
-0.812257	-0.720976
-0.762337	0.276971
-0.822279	-0.717768
-0.772294	0.27048
-0.832297	-0.706237
-0.782271	0.264218
-0.842277	-0.700204
-0.79232	0.25765
-0.852311	-0.69188
-0.802269	0.255283
-0.862245	-0.675462
-0.812268	0.242148
-0.872294	-0.654156
-0.822302	0.236574
-0.882335	-0.638959
-0.832305	0.219697
-0.892266	-0.620097
-0.842297	0.206104
-0.902284	-0.5965
-0.852319	0.197092
-0.912287	-0.576186
-0.862333	0.184416
-0.922309	-0.560608
-0.872321	0.181208
-0.932282	-0.549382
-0.882324	0.164026
-0.942316	-0.52716
-0.892281	0.162422
-0.952269	-0.513796
-0.902223	0.15723
-0.962272	-0.50845
-0.912318	0.149517
-0.972241	-0.496079
-0.922336	0.141346
-0.982316	-0.496461
-0.932267	0.143255
-0.992419	-0.49081
-0.942273	0.146997
-1.00232	-0.488519
-0.952292	0.150891
-1.01238	-0.494246
-0.962272	0.148524
-1.02235	-0.485311
-0.972225	0.15532
-1.03237	-0.486151
-0.982312	0.152571
-1.04234	-0.495392
-0.992369	0.158681
-1.05236	-0.506617
-1.00231	0.162804
-1.06233	-0.513643
-1.01238	0.166164
-1.07235	-0.518225
-1.02236	0.171739
-1.08234	-0.525861
-1.03232	0.180445
-1.09236	-0.544342
-1.04235	0.179452
-1.10232	-0.552589
-1.05238	0.191518
-1.11225	-0.583747
-1.06232	0.194802
-1.12233	-0.589703
-1.07231	0.201904

File: CoPc_CNT_VFSWV_scans_28_27_C02.txt
Ewe/V	<I>/mA
-0.121931	-0.000144417
-0.0719193	0.0649799
-0.131964	-0.0182587
-0.0819567	0.0547469
-0.141876	-0.023528
-0.0919216	0.0539068
-0.151955	-0.0236043
-0.101959	0.0597106
-0.16205	-0.0249789
-0.111962	0.0503176
-0.172015	-0.0254371
-0.121919	0.0433684
-0.182048	-0.0193279
-0.131949	0.0484849
-0.191983	-0.0249026
-0.14196	0.0604743
-0.202016	-0.0362047
-0.15189	0.0565796
-0.211992	-0.0315464
-0.162042	0.0503176
-0.221919	-0.0359756
-0.17198	0.0562742
-0.231972	-0.0387247
-0.182075	0.0521504
-0.242063	-0.0437649
-0.192032	0.0564269
-0.251997	-0.0403284
-0.20197	0.0572669
-0.262103	-0.0421612
-0.212012	0.0514631
-0.272026	-0.0449104
-0.22198	0.0578778
-0.281949	-0.0467431
-0.231972	0.0488667
-0.29204	-0.0537688
-0.241971	0.0519213
-0.301978	-0.0539215
-0.252005	0.0492485
-0.312046	-0.0617108
-0.261985	0.0548996
-0.321934	-0.0601071
-0.27198	0.0523795
-0.331979	-0.074693
-0.282002	0.0538305
-0.341971	-0.0739293
-0.291998	0.0565033
-0.351924	-0.076373
-0.302031	0.0576487
-0.361935	-0.0882861
-0.311973	0.0634525
-0.371969	-0.102108
-0.322011	0.0657435
-0.381987	-0.108141
-0.331941	0.0694854
-0.392017	-0.129371
-0.341925	0.075671
-0.401978	-0.155641
-0.351951	0.0794893
-0.411965	-0.188783
-0.361988	0.0874314
-0.42185	-0.240636
-0.371942	0.102552
-0.431945	-0.320438
-0.382044	0.117901
-0.441921	-0.415742
-0.392024	0.156466
-0.451939	-0.545106
-0.40197	0.206256
-0.461912	-0.71143
-0.411923	0.283691
-0.471972	-0.905323
-0.421919	0.403051
-0.481983	-1.13228
-0.431945	0.553797
-0.491929	-1.38123
-0.441891	0.748605
-0.501985	-1.64836
-0.451917	0.964873
-0.511935	-1.9009
-0.461897	1.19649
-0.521965	-2.14604
-0.471911	1.41337
-0.531968	-2.37842
-0.481914	1.61574
-0.541894	-2.57361
-0.491955	1.78817
-0.551943	-2.72344
-0.501917	1.90784
-0.561935	-2.83348
-0.511962	2.00536
-0.571907	-2.87922
-0.521881	2.05851
-0.581949	-2.87334
-0.532006	2.07454
-0.591906	-2.80339
-0.541845	2.04331
-0.602019	-2.67533
-0.551909	1.97771
-0.611912	-2.49709
-0.561866	1.88164
-0.621926	-2.28533
-0.57198	1.73517
-0.632078	-2.03111
-0.582055	1.58863
-0.641929	-1.77475
-0.591971	1.42429
-0.651977	-1.53931
-0.601935	1.25445
-0.662019	-1.3264
-0.611996	1.08507
-0.672018	-1.15244
-0.621976	0.933334
-0.681945	-1.01292
-0.631968	0.783505
-0.69199	-0.908148
-0.641982	0.661854
-0.701939	-0.821626
-0.651989	0.566244
-0.711992	-0.767941
-0.661954	0.485602
-0.722045	-0.728307
-0.672029	0.421073
-0.731979	-0.702724
-0.681983	0.372734
-0.741925	-0.684015
-0.691929	0.334016
-0.751981	-0.673858
-0.701901	0.311412
-0.761954	-0.665534
-0.712049	0.29232
-0.771907	-0.656294
-0.722033	0.278651
-0.781979	-0.660571
-0.731933	0.26712
-0.791913	-0.65996
-0.741936	0.258872
-0.801951	-0.654767
-0.751985	0.252916
-0.811976	-0.646366
-0.761931	0.241308
-0.821903	-0.641632
-0.772006	0.240926
-0.831998	-0.636668
-0.781979	0.234664
-0.842028	-0.638501
-0.791951	0.227181
-0.851989	-0.622006
-0.801973	0.222904
-0.862037	-0.608336
-0.811931	0.215497
-0.872029	-0.596729
-0.821968	0.202133
-0.882017	-0.579852
-0.831933	0.195947
-0.891905	-0.568474
-0.841967	0.17823
-0.901908	-0.54648
-0.851958	0.171357
-0.911908	-0.531818
-0.861965	0.165477
-0.92193	-0.507916
-0.871999	0.154862
-0.931975	-0.488824
-0.881921	0.143866
-0.942008	-0.475918
-0.89202	0.135389
-0.951866	-0.470802
-0.90192	0.129356
-0.961946	-0.451023
-0.9119	0.129127
-0.971922	-0.448121
-0.921976	0.123476
-0.981948	-0.439263
-0.931967	0.122712
-0.991989	-0.435903
-0.941814	0.120498
-1.00198	-0.432619
-0.951905	0.12233
-1.01196	-0.441172
-0.961927	0.127142
-1.02191	-0.437583
-0.971914	0.121643
-1.03197	-0.449114
-0.981906	0.13516
-1.04191	-0.438117
-0.992043	0.136916
-1.05197	-0.450183
-1.00211	0.141269
-1.06203	-0.46286
-1.01198	0.134778
-1.07194	-0.474696
-1.02201	0.147073
-1.08209	-0.476376
-1.03204	0.147149
-1.09199	-0.484166
-1.04197	0.154633
-1.10206	-0.50845
-1.05192	0.163033
-1.112	-0.516545
-1.06198	0.165783
-1.12196	-0.543655
-1.0719	0.170059

File: CoPc_CNT_VFSWV_scans_29_28_C02.txt
Ewe/V	<I>/mA
-0.122356	-0.00720824
-0.0723791	0.0523795
-0.132317	-0.0198624
-0.082363	0.0519977
-0.142328	-0.0218479
-0.0923928	0.0428338
-0.152339	-0.0258953
-0.102281	0.0386337
-0.162445	-0.025208
-0.11233	0.0426047
-0.172387	-0.0300191
-0.122352	0.0384046
-0.182405	-0.0258953
-0.132374	0.043292
-0.192438	-0.0334555
-0.142332	0.0456593
-0.202388	-0.0307063
-0.152358	0.042452
-0.212452	-0.0352119
-0.162391	0.0433684
-0.222451	-0.0402521
-0.172467	0.0425283
-0.232409	-0.0422376
-0.18239	0.0412301
-0.242374	-0.0436885
-0.192397	0.041001
-0.252415	-0.0394884
-0.202411	0.0467285
-0.26246	-0.0430776
-0.212391	0.0435975
-0.272417	-0.047965
-0.222432	0.0422229
-0.282378	-0.0494923
-0.232401	0.0429102
-0.292396	-0.0569761
-0.242389	0.0497831
-0.302384	-0.0566707
-0.252407	0.0482558
-0.312372	-0.0568234
-0.262391	0.050394
-0.322367	-0.0650709
-0.272394	0.0471103
-0.332363	-0.0687365
-0.282386	0.0451248
-0.342309	-0.0747694
-0.292389	0.0482558
-0.352365	-0.0785113
-0.302399	0.0502413
-0.362337	-0.0822532
-0.312349	0.0510813
-0.372356	-0.093708
-0.322379	0.0542123
-0.382355	-0.0972972
-0.332336	0.0494013
-0.392392	-0.114098
-0.342347	0.0644453
-0.402354	-0.136931
-0.352312	0.0681108
-0.412322	-0.171219
-0.362318	0.0759001
-0.422325	-0.212915
-0.372337	0.079413
-0.432321	-0.279429
-0.382374	0.100872
-0.44237	-0.365723
-0.392358	0.128211
-0.452315	-0.480653
-0.402365	0.163186
-0.462353	-0.624908
-0.412334	0.231075
-0.472291	-0.80368
-0.422302	0.322485
-0.482336	-1.00887
-0.432325	0.456812
-0.492347	-1.23308
-0.442278	0.629475
-0.502365	-1.48647
-0.452338	0.832913
-0.512318	-1.73
-0.462349	1.04216
-0.522348	-1.96299
-0.472302	1.25896
-0.532301	-2.18132
-0.482313	1.45285
-0.542308	-2.36162
-0.492308	1.61497
-0.552292	-2.5103
-0.502323	1.75175
-0.562307	-2.61034
-0.512356	1.84308
-0.572337	-2.64822
-0.522298	1.89951
-0.582374	-2.6447
-0.532309	1.91952
-0.592365	-2.57536
-0.542335	1.88821
-0.60243	-2.4392
-0.552319	1.82284
-0.612402	-2.2696
-0.562314	1.72441
-0.622401	-2.0518
-0.572298	1.60192
-0.632401	-1.81766
-0.582427	1.44781
-0.642392	-1.58078
-0.592404	1.28813
-0.652395	-1.36252
-0.602369	1.1244
-0.662375	-1.17352
-0.612364	0.96747
-0.672394	-1.01766
-0.622344	0.821993
-0.682332	-0.895853
-0.632347	0.687513
-0.692449	-0.80956
-0.642377	0.584266
-0.702368	-0.738158
-0.652361	0.492322
-0.712337	-0.690811
-0.662417	0.422295
-0.722313	-0.657134
-0.672352	0.374108
-0.732339	-0.639112
-0.682355	0.32554
-0.742327	-0.621471
-0.692354	0.297132
-0.752342	-0.615438
-0.702315	0.272389
-0.762349	-0.609406
-0.712372	0.25681
-0.772348	-0.6091
-0.722332	0.24925
-0.782324	-0.599096
-0.732359	0.233748
-0.792304	-0.601311
-0.742308	0.231228
-0.802338	-0.601769
-0.752346	0.220842
-0.812268	-0.603373
-0.762356	0.218246
-0.822336	-0.595812
-0.772374	0.217635
-0.832324	-0.586878
-0.782366	0.202438
-0.842369	-0.582601
-0.792335	0.199536
-0.852292	-0.569084
-0.802342	0.196787
-0.862314	-0.560761
-0.812303	0.187547
-0.872367	-0.541975
-0.822344	0.176016
-0.882381	-0.527389
-0.832297	0.169906
-0.892319	-0.516927
-0.842319	0.161812
-0.902353	-0.49585
-0.852345	0.148218
-0.912318	-0.478362
-0.862314	0.139436
-0.922267	-0.464998
-0.872355	0.13684
-0.932248	-0.44415
-0.882324	0.12424
-0.942312	-0.434528
-0.892319	0.11897
-0.952292	-0.430175
-0.902322	0.109883
-0.962253	-0.408335
-0.91231	0.10553
-0.972317	-0.400164
-0.922317	0.108356
-0.98232	-0.407495
-0.932312	0.10301
-0.992384	-0.397414
-0.942354	0.107897
-1.0024	-0.402073
-0.952303	0.108661
-1.01237	-0.400469
-0.96228	0.112479
-1.02237	-0.3994
-0.97229	0.110723
-1.03235	-0.407113
-0.982309	0.120727
-1.0424	-0.404669
-0.992449	0.110494
-1.05239	-0.409786
-1.00243	0.119734
-1.06239	-0.414749
-1.0124	0.120269
-1.0724	-0.427426
-1.02238	0.119887
-1.08241	-0.433459
-1.03237	0.127447
-1.09241	-0.437965
-1.04237	0.132869
-1.10239	-0.461562
-1.05242	0.139742
-1.11236	-0.475689
-1.06235	0.14356
-1.12237	-0.489206
-1.0724	0.141269

File: CoPc_CNT_VFSWV_scans_30_29_C02.txt
Ewe/V	<I>/mA
-0.122341	-0.0136611
-0.0723982	0.0477976
-0.132352	-0.0191751
-0.0823096	0.0442084
-0.142343	-0.0196333
-0.0923623	0.0381755
-0.152304	-0.0215425
-0.102312	0.0413065
-0.162441	-0.0214661
-0.112311	0.041612
-0.172425	-0.0291027
-0.122314	0.038481
-0.182401	-0.0303245
-0.132329	0.0334408
-0.192408	-0.0366629
-0.142358	0.0335172
-0.202346	-0.033761
-0.152327	0.0337463
-0.212414	-0.0285681
-0.162452	0.0341281
-0.222413	-0.0410157
-0.172459	0.0364955
-0.232397	-0.0382666
-0.182397	0.0403137
-0.242385	-0.0451395
-0.192423	0.0400083
-0.252365	-0.0395648
-0.202442	0.0390155
-0.262383	-0.0470486
-0.212372	0.0328299
-0.272379	-0.0432303
-0.222436	0.0400846
-0.282424	-0.0501796
-0.232397	0.0402374
-0.292358	-0.0534633
-0.2424	0.0419938
-0.302377	-0.0540743
-0.252422	0.0396265
-0.31241	-0.0599544
-0.262402	0.0393974
-0.322405	-0.0627036
-0.272383	0.044132
-0.33234	-0.0616344
-0.282378	0.0440557
-0.342358	-0.0693474
-0.2924	0.0458121
-0.352346	-0.0675146
-0.302411	0.0458121
-0.362364	-0.0811077
-0.312376	0.0439793
-0.372375	-0.0818714
-0.322398	0.046423
-0.382321	-0.0899661
-0.332367	0.0468812
-0.392335	-0.108828
-0.342385	0.057496
-0.402376	-0.121352
-0.352342	0.0616198
-0.412334	-0.144873
-0.362395	0.0672708
-0.422348	-0.185194
-0.372379	0.0726164
-0.432309	-0.240101
-0.382355	0.0868968
-0.442335	-0.314405
-0.392301	0.102552
-0.452323	-0.421622
-0.402346	0.137298
-0.462311	-0.542509
-0.412357	0.192816
-0.472382	-0.705015
-0.422356	0.271549
-0.482347	-0.89486
-0.432363	0.379454
-0.492343	-1.10601
-0.442385	0.52997
-0.502353	-1.33282
-0.452361	0.715081
-0.512372	-1.56665
-0.462318	0.917297
-0.52234	-1.78758
-0.472379	1.12524
-0.532294	-1.99697
-0.482344	1.30798
-0.542289	-2.17238
-0.492331	1.47278
-0.552334	-2.30885
-0.502266	1.60459
-0.562356	-2.4024
-0.512314	1.7005
-0.572314	-2.44088
-0.52234	1.75831
-0.582427	-2.4263
-0.532317	1.77733
-0.592385	-2.35627
-0.542327	1.74541
-0.602426	-2.22561
-0.552323	1.69073
-0.612379	-2.05562
-0.562326	1.59848
-0.62242	-1.84653
-0.572325	1.46957
-0.632427	-1.62973
-0.582389	1.32272
-0.642388	-1.41125
-0.592392	1.17083
-0.652411	-1.2117
-0.602426	1.01818
-0.662368	-1.04347
-0.612402	0.871554
-0.672436	-0.910592
-0.622394	0.732798
-0.682408	-0.804902
-0.632374	0.612293
-0.692354	-0.721816
-0.642358	0.504541
-0.702342	-0.670727
-0.652338	0.433062
-0.71228	-0.62422
-0.662372	0.373803
-0.72234	-0.604442
-0.672386	0.32386
-0.732351	-0.584434
-0.682339	0.284455
-0.742278	-0.568397
-0.692381	0.260171
-0.752315	-0.567481
-0.702391	0.242912
-0.762371	-0.566183
-0.712341	0.232679
-0.77231	-0.55847
-0.722348	0.220002
-0.78232	-0.559539
-0.73232	0.204729
-0.792293	-0.560455
-0.742362	0.201064
-0.802334	-0.554346
-0.75233	0.203889
-0.812352	-0.54816
-0.762337	0.193274
-0.822317	-0.552131
-0.77234	0.193274
-0.832301	-0.541058
-0.782362	0.183576
-0.842335	-0.541898
-0.79232	0.177161
-0.852326	-0.528458
-0.802342	0.16731
-0.862394	-0.523952
-0.812371	0.164713
-0.872294	-0.49669
-0.822371	0.156542
-0.882316	-0.485082
-0.832332	0.147149
-0.892293	-0.478515
-0.842331	0.143484
-0.902311	-0.451558
-0.852323	0.133709
-0.912329	-0.442317
-0.862306	0.129814
-0.922267	-0.419942
-0.872287	0.122101
-0.932354	-0.414902
-0.88237	0.111257
-0.942308	-0.402836
-0.892293	0.106217
-0.952341	-0.390541
-0.902349	0.092166
-0.962295	-0.387029
-0.91231	0.0938461
-0.972248	-0.377788
-0.922279	0.0863623
-0.982301	-0.375497
-0.932286	0.0935406
-0.992377	-0.369312
-0.942296	0.0898751
-1.00241	-0.37145
-0.95233	0.0894169
-1.01244	-0.366257
-0.962306	0.0935406
-1.02241	-0.372443
-0.972233	0.093617
-1.03238	-0.372901
-0.982255	0.0914024
-1.04239	-0.37481
-0.992392	0.0954498
-1.05232	-0.381072
-1.00241	0.0988099
-1.06239	-0.383058
-1.01237	0.10133
-1.07238	-0.390771
-1.02235	0.102323
-1.08234	-0.397796
-1.03242	0.109654
-1.09241	-0.406426
-1.04241	0.115381
-1.10239	-0.422691
-1.0524	0.120421
-1.11237	-0.430252
-1.06236	0.121643
-1.12229	-0.443463
-1.07234	0.126607