Folder: ElectrochemLabUtils/VFSWV_data_prep/Example_data/CoPc(OMe)8_VFSWV_txt_data (part 9)

File: CoPc(OMe)8_CNT_VFSWV_scans_49_48_C02.txt
Ewe/V	<I>/mA
-0.122064	0.0125166
-0.07203	0.0301982
-0.132071	-0.00557616
-0.0820903	0.0169517
-0.142074	-0.00866016
-0.0920208	0.0218567
-0.152047	-0.00751467
-0.10207	0.0169517
-0.162023	-0.00792588
-0.112012	0.0202119
-0.172007	-0.00783776
-0.122061	0.0200651
-0.182037	-0.0099525
-0.132052	0.0145726
-0.192028	-0.0182059
-0.142086	0.0156594
-0.202043	-0.0137414
-0.152016	0.0209462
-0.212019	-0.016796
-0.162092	0.0242652
-0.222091	-0.0150044
-0.172057	0.0237071
-0.232021	-0.0165317
-0.182037	0.0210637
-0.242013	-0.0191751
-0.192059	0.017921
-0.252016	-0.0232284
-0.20202	0.0174217
-0.262053	-0.0228172
-0.212096	0.0218861
-0.272056	-0.0218186
-0.222041	0.0186259
-0.282159	-0.0254019
-0.23206	0.0137209
-0.292105	-0.0182352
-0.24199	0.0158943
-0.302104	-0.0237864
-0.25205	0.0229435
-0.312122	-0.0293964
-0.262019	0.0163055
-0.322072	-0.0309824
-0.272053	0.00875709
-0.332075	-0.0303069
-0.282109	0.0110187
-0.342116	-0.0354175
-0.292105	0.0141908
-0.352104	-0.0317461
-0.30213	0.0207113
-0.362122	-0.0289558
-0.312153	0.0196539
-0.372079	-0.0353882
-0.32214	0.0131334
-0.382109	-0.0296901
-0.332079	0.0145139
-0.392066	-0.0360637
-0.342082	0.00963823
-0.4021	-0.0352119
-0.352115	0.0182734
-0.412061	-0.0359462
-0.362118	0.0169517
-0.422041	-0.0388834
-0.372064	0.0177154
-0.432067	-0.0368274
-0.382082	0.0194189
-0.442074	-0.0397645
-0.392093	0.0101963
-0.452069	-0.0399701
-0.402062	0.0141614
-0.46208	-0.0381197
-0.412095	0.0150132
-0.472079	-0.0374735
-0.422049	0.0134565
-0.48204	-0.0430541
-0.432067	0.0155419
-0.492047	-0.0427604
-0.442074	0.0166874
-0.5021	-0.0440821
-0.452016	0.0137502
-0.512065	-0.0462262
-0.46208	0.0192133
-0.521995	-0.0472836
-0.472083	0.0182734
-0.531991	-0.0489284
-0.482059	0.0167167
-0.542055	-0.0547145
-0.491997	0.0191252
-0.552039	-0.0559775
-0.502069	0.0175098
-0.562038	-0.0618812
-0.51213	0.0182441
-0.572068	-0.0681373
-0.522026	0.0169223
-0.58199	-0.0756857
-0.532067	0.0253519
-0.59207	-0.0812369
-0.541986	0.025675
-0.602012	-0.0906652
-0.552035	0.0286709
-0.612011	-0.0948653
-0.562068	0.0333116
-0.622026	-0.10074
-0.572049	0.034134
-0.632029	-0.118362
-0.582025	0.043151
-0.642032	-0.119713
-0.592062	0.0482616
-0.652023	-0.127585
-0.601993	0.0535779
-0.661988	-0.13434
-0.612011	0.062125
-0.671995	-0.136661
-0.622037	0.0604802
-0.681983	-0.138511
-0.632048	0.0612144
-0.692032	-0.135075
-0.642005	0.0653558
-0.701993	-0.137219
-0.652023	0.0651796
-0.712091	-0.135692
-0.661988	0.0638285
-0.722106	-0.136455
-0.672037	0.0588354
-0.732074	-0.13625
-0.682017	0.0557807
-0.742081	-0.130522
-0.691993	0.0534604
-0.752069	-0.124619
-0.702138	0.0503764
-0.762076	-0.128789
-0.712106	0.0380698
-0.772067	-0.122416
-0.722052	0.0471749
-0.782029	-0.128525
-0.732071	0.0375411
-0.792047	-0.125823
-0.742123	0.0455301
-0.802073	-0.11754
-0.752134	0.0388628
-0.812091	-0.116218
-0.762061	0.035162
-0.822048	-0.118392
-0.772136	0.0382166
-0.832086	-0.125177
-0.782067	0.0351032
-0.842051	-0.1166
-0.792108	0.0364543
-0.85205	-0.121182
-0.802038	0.0295227
-0.862076	-0.116659
-0.812049	0.0289059
-0.872075	-0.116483
-0.822083	0.0307857
-0.882059	-0.11986
-0.832078	0.0316962
-0.892108	-0.118539
-0.842024	0.0320193
-0.902065	-0.116659
-0.852061	0.0312262
-0.912068	-0.121535
-0.862053	0.0362487
-0.922067	-0.117129
-0.872071	0.0353676
-0.932028	-0.114926
-0.882105	0.0327829
-0.942043	-0.121182
-0.892085	0.039274
-0.952019	-0.118685
-0.902042	0.0354557
-0.962072	-0.11754
-0.912022	0.0295521
-0.971998	-0.120712
-0.922082	0.0363662
-0.982051	-0.116101
-0.932032	0.0360138
-0.992027	-0.120741
-0.942039	0.0350739
-1.00202	-0.126175
-0.952008	0.0356613
-1.012	-0.128731
-0.962072	0.0321955
-1.02198	-0.121035
-0.971964	0.0245295
-1.03199	-0.122063
-0.982063	0.0325479
-1.04207	-0.131374
-0.992043	0.033899
-1.052	-0.126351
-1.00202	0.035955
-1.06201	-0.121476
-1.01203	0.0333703
-1.072	-0.12547
-1.02201	0.0266149
-1.08202	-0.130669
-1.03201	0.033899
-1.09201	-0.130375
-1.04206	0.0291996
-1.10206	-0.140244
-1.05205	0.0316962
-1.11201	-0.143622
-1.06195	0.0213281
-1.1221	-0.143651
-1.07198	0.0251463

File: CoPc(OMe)8_CNT_VFSWV_scans_50_49_C02.txt
Ewe/V	<I>/mA
-0.122041	-0.0134477
-0.07203	0.0149985
-0.132044	-0.0161205
-0.0821017	0.0106075
-0.142025	-0.0189297
-0.0920743	0.00828925
-0.152012	-0.0190115
-0.102028	0.00460733
-0.162015	-0.0211115
-0.112042	0.00894381
-0.171988	-0.023648
-0.12203	0.00523462
-0.182079	-0.0206752
-0.132037	0.00692557
-0.192017	-0.0137204
-0.141986	0.0090529
-0.20202	-0.0202661
-0.152028	0.00490734
-0.212027	-0.0241116
-0.161962	0.00668011
-0.221988	-0.0234025
-0.172003	0.009162
-0.232018	-0.0244935
-0.182048	0.00542553
-0.241979	-0.028639
-0.192036	0.00373458
-0.252031	-0.0304391
-0.202047	0.00880744
-0.262015	-0.0288027
-0.212023	0.00809833
-0.272049	-0.0316118
-0.222026	0.00365276
-0.282128	-0.0302209
-0.232014	0.00662557
-0.292097	-0.0318573
-0.242036	0.00526189
-0.302077	-0.0354574
-0.251978	0.000898139
-0.312084	-0.0391939
-0.262004	0.00204362
-0.322102	-0.0394666
-0.272007	-0.001011
-0.332048	-0.0364392
-0.282113	0.0019618
-0.342085	-0.0422212
-0.292101	-0.00302924
-0.352104	-0.040503
-0.302115	0.00348912
-0.362069	-0.039412
-0.312176	0.00157997
-0.372133	-0.039412
-0.322068	0.000816318
-0.382048	-0.0416485
-0.332105	0.000216302
-0.392116	-0.0445395
-0.342082	0.00447096
-0.402153	-0.0414303
-0.352073	0.00550735
-0.412072	-0.0441303
-0.362095	0.00572554
-0.422037	-0.0461486
-0.372121	0.005971
-0.432063	-0.0404484
-0.382056	0.00324366
-0.442093	-0.0432031
-0.39207	0.00441642
-0.452096	-0.0441031
-0.402023	0.00507098
-0.462088	-0.0436667
-0.412057	0.00209817
-0.472056	-0.0433121
-0.422079	0.00708921
-0.482021	-0.0500487
-0.432086	0.0063801
-0.492062	-0.0454122
-0.442074	0.00676193
-0.502023	-0.0476486
-0.452058	0.0104438
-0.512076	-0.0537579
-0.462099	0.0102257
-0.522064	-0.0481395
-0.472068	0.00929836
-0.532044	-0.047485
-0.482059	0.00788014
-0.542005	-0.0530488
-0.492009	0.0166895
-0.552023	-0.0583671
-0.502046	0.0154894
-0.562003	-0.06584
-0.512065	0.00676193
-0.572049	-0.0715674
-0.522071	0.0133894
-0.581983	-0.0738584
-0.532059	0.0086438
-0.59199	-0.0869224
-0.542051	0.0130348
-0.602042	-0.0892134
-0.552054	0.0155985
-0.61203	-0.0976682
-0.562046	0.0168531
-0.622006	-0.103286
-0.572056	0.0206168
-0.631987	-0.113105
-0.581971	0.027517
-0.642016	-0.114278
-0.591997	0.0329445
-0.651996	-0.116814
-0.602065	0.0330535
-0.661996	-0.130642
-0.611981	0.0355082
-0.67198	-0.12846
-0.621995	0.0433902
-0.682002	-0.129687
-0.632002	0.0437447
-0.692013	-0.135033
-0.642009	0.0482449
-0.702	-0.12636
-0.651966	0.0412356
-0.712072	-0.124069
-0.661996	0.0489812
-0.72206	-0.128269
-0.671972	0.039981
-0.732055	-0.125569
-0.682006	0.0398174
-0.742035	-0.126769
-0.691986	0.0355627
-0.752073	-0.12396
-0.702084	0.0324535
-0.762041	-0.122732
-0.712083	0.0341445
-0.772064	-0.115832
-0.722094	0.0345809
-0.781994	-0.120005
-0.732051	0.0297535
-0.792081	-0.116132
-0.742047	0.0276807
-0.801993	-0.110978
-0.752084	0.03499
-0.812041	-0.112778
-0.762049	0.0276807
-0.822067	-0.119023
-0.772087	0.0215714
-0.832105	-0.114032
-0.782055	0.0238351
-0.842073	-0.116814
-0.792051	0.0213805
-0.852046	-0.115369
-0.802057	0.0221714
-0.862053	-0.116705
-0.81208	0.023426
-0.872083	-0.119269
-0.822006	0.0220078
-0.882044	-0.118451
-0.83204	0.0205623
-0.892066	-0.117523
-0.842001	0.0230987
-0.902054	-0.120114
-0.852073	0.0214078
-0.912068	-0.119051
-0.862064	0.0220896
-0.922052	-0.119678
-0.871987	0.0222805
-0.932002	-0.116132
-0.882032	0.022826
-0.942077	-0.118941
-0.892016	0.0258261
-0.952019	-0.116896
-0.902061	0.0235897
-0.96206	-0.118096
-0.912022	0.0212169
-0.972021	-0.112941
-0.921999	0.0196077
-0.982055	-0.118996
-0.932028	0.0221169
-0.992012	-0.117632
-0.942062	0.0191168
-1.00203	-0.120632
-0.952034	0.0191168
-1.01205	-0.122323
-0.962026	0.0199896
-1.02201	-0.12306
-0.972021	0.0221714
-1.032	-0.123905
-0.982036	0.0214078
-1.04202	-0.120823
-0.992039	0.0215714
-1.05199	-0.123769
-1.00212	0.0179713
-1.06199	-0.121778
-1.01202	0.0216805
-1.07199	-0.125842
-1.022	0.0163349
-1.08202	-0.130178
-1.03196	0.0192532
-1.09201	-0.135196
-1.042	0.0168531
-1.10199	-0.135987
-1.05204	0.0188441
-1.11199	-0.141633
-1.06199	0.0151622
-1.12206	-0.143624
-1.072	0.0163895

File: CoPc(OMe)8_CNT_VFSWV_scans_51_50_C02.txt
Ewe/V	<I>/mA
-0.122038	-0.0100112
-0.072072	0.0120839
-0.132048	-0.0125822
-0.0821056	0.00852016
-0.14207	-0.0144659
-0.092059	0.00755286
-0.152028	-0.0148477
-0.102043	0.0107857
-0.161989	-0.0129131
-0.112042	0.00556736
-0.172072	-0.0143386
-0.122053	0.0112693
-0.181987	-0.0155605
-0.132052	0.00533826
-0.192028	-0.0185133
-0.14204	0.009462
-0.202039	-0.017546
-0.15202	0.00630556
-0.212054	-0.022688
-0.162038	0.00867289
-0.222045	-0.0217716
-0.172045	0.0107093
-0.232037	-0.0247244
-0.18206	0.00880017
-0.242002	-0.0237062
-0.192032	0.00790924
-0.252031	-0.0293572
-0.201997	0.00460006
-0.262053	-0.028899
-0.212012	0.00462551
-0.272018	-0.0262517
-0.222049	0.00648374
-0.282132	-0.0301209
-0.232029	0.0028691
-0.292082	-0.0275244
-0.242017	0.00518553
-0.302127	-0.0212115
-0.252016	0.00279273
-0.312114	-0.0338628
-0.261973	-0.000389169
-0.322087	-0.0295609
-0.272053	0.00638192
-0.332079	-0.0301463
-0.282037	0.00678921
-0.342082	-0.0335828
-0.292112	0.00477824
-0.352104	-0.0312155
-0.302047	0.00475279
-0.362084	-0.0306809
-0.312053	0.00829106
-0.372068	-0.0352883
-0.322133	0.00314911
-0.382101	-0.0381647
-0.332109	0.00467642
-0.392028	-0.0374265
-0.342085	0.0077565
-0.402054	-0.0327173
-0.352138	0.00801106
-0.412088	-0.034321
-0.362099	0.00541462
-0.422087	-0.0398702
-0.372095	0.0114221
-0.432006	-0.0389029
-0.382113	0.00846925
-0.442059	-0.0374774
-0.392108	0.00750195
-0.452058	-0.0381138
-0.402088	0.00340366
-0.462069	-0.0372993
-0.412076	0.00905472
-0.472037	-0.0412448
-0.422049	0.0167677
-0.48201	-0.0387502
-0.432044	0.0140949
-0.492024	-0.0451649
-0.442078	0.00859653
-0.502027	-0.0470232
-0.452073	0.00958928
-0.512065	-0.048525
-0.462057	0.00727285
-0.52206	-0.0514524
-0.47206	0.0107348
-0.532025	-0.0467431
-0.482078	0.0109384
-0.542081	-0.0506378
-0.492055	0.0096911
-0.55205	-0.053667
-0.502039	0.00974201
-0.562042	-0.0670564
-0.512038	0.00986929
-0.572018	-0.0637472
-0.522094	0.0131276
-0.581975	-0.0606162
-0.532075	0.0153676
-0.591963	-0.0688128
-0.541986	0.0204587
-0.602058	-0.0679219
-0.552031	0.0292662
-0.612045	-0.0788676
-0.562034	0.027637
-0.622026	-0.0865042
-0.57201	0.0250406
-0.632021	-0.0956936
-0.582032	0.0254733
-0.641974	-0.104145
-0.592039	0.0362918
-0.651993	-0.104908
-0.602042	0.0368773
-0.66203	-0.103814
-0.612003	0.0363173
-0.671972	-0.105672
-0.622056	0.0406956
-0.682006	-0.109694
-0.632029	0.0438775
-0.692055	-0.11145
-0.642001	0.0485103
-0.702061	-0.107378
-0.652	0.0406192
-0.712087	-0.109338
-0.662015	0.0397792
-0.722117	-0.103432
-0.672052	0.0431138
-0.732101	-0.105952
-0.682006	0.0442084
-0.742123	-0.107607
-0.69199	0.0355027
-0.752073	-0.109338
-0.702126	0.0337208
-0.762091	-0.110356
-0.712103	0.0321681
-0.772037	-0.109643
-0.722102	0.0287825
-0.782128	-0.107632
-0.732139	0.0203568
-0.792093	-0.103686
-0.742116	0.0259315
-0.80205	-0.108396
-0.752061	0.0249133
-0.812045	-0.104959
-0.76208	0.0249133
-0.822018	-0.105927
-0.772041	0.0232587
-0.832067	-0.108396
-0.782055	0.0204078
-0.842043	-0.107225
-0.792073	0.0217569
-0.852103	-0.102134
-0.802065	0.0224951
-0.862045	-0.11117
-0.81208	0.0183713
-0.872079	-0.107658
-0.822102	0.020255
-0.882063	-0.10865
-0.832082	0.0170477
-0.892058	-0.106843
-0.842093	0.0198223
-0.902019	-0.109338
-0.852065	0.0186513
-0.912095	-0.11173
-0.862102	0.0178113
-0.922014	-0.118272
-0.872098	0.0198732
-0.931994	-0.110534
-0.882074	0.0123384
-0.942039	-0.106563
-0.892073	0.0202296
-0.952046	-0.105748
-0.902076	0.0176077
-0.962018	-0.106767
-0.912099	0.0232333
-0.972052	-0.105468
-0.922056	0.0217823
-0.982055	-0.108039
-0.93204	0.0183459
-0.992024	-0.109745
-0.942031	0.0161567
-1.00202	-0.111018
-0.952027	0.019415
-1.01206	-0.111196
-0.962045	0.0185241
-1.02202	-0.112672
-0.972018	0.0183713
-1.03199	-0.108701
-0.982028	0.0216041
-1.04202	-0.10977
-0.99205	0.0226478
-1.05198	-0.111349
-1.00206	0.0200514
-1.06203	-0.111552
-1.01208	0.0184986
-1.07199	-0.115803
-1.02203	0.0106329
-1.08201	-0.116287
-1.03199	0.0182186
-1.09196	-0.122116
-1.04205	0.0209169
-1.10202	-0.128225
-1.05199	0.0183968
-1.11203	-0.125756
-1.06203	0.013713
-1.12212	-0.131127
-1.07203	0.0169458

File: CoPc(OMe)8_CNT_VFSWV_scans_52_51_C02.txt
Ewe/V	<I>/mA
-0.122045	0.00297092
-0.0720911	0.0195592
-0.132056	-0.00188678
-0.0821056	0.0180531
-0.142044	-0.0128113
-0.0920246	0.00869835
-0.152058	-0.00413533
-0.10207	0.00823167
-0.162099	-0.014678
-0.112042	0.0124954
-0.172038	-0.0161841
-0.122041	0.0145955
-0.182044	-0.0119204
-0.132044	0.0122621
-0.192044	-0.0072536
-0.142032	0.0132379
-0.202031	-0.00950214
-0.15207	0.00617404
-0.212057	-0.0121113
-0.162019	0.00980141
-0.222068	-0.00829302
-0.172026	0.014744
-0.231991	-0.0119416
-0.182075	0.0133015
-0.242028	-0.0134901
-0.192044	0.0160592
-0.25202	-0.013872
-0.202066	0.0120287
-0.262053	-0.0129598
-0.212019	0.0182865
-0.272014	-0.0165872
-0.222015	0.0153167
-0.282094	-0.020554
-0.232041	0.00787105
-0.292127	-0.0216358
-0.242051	0.0136621
-0.30215	-0.0143598
-0.252016	0.0144046
-0.312134	-0.0158872
-0.262034	0.0116893
-0.322102	-0.017372
-0.271992	0.0127075
-0.332117	-0.0159932
-0.282124	0.0152743
-0.342082	-0.0197903
-0.292116	0.00492249
-0.352123	-0.0166296
-0.302153	0.00297092
-0.362084	-0.0199176
-0.312065	0.00746801
-0.372064	-0.0217207
-0.322129	0.0143621
-0.382075	-0.0173933
-0.332105	0.0140015
-0.392074	-0.0173084
-0.342021	0.0163349
-0.402108	-0.0203418
-0.352127	0.0154228
-0.412091	-0.0214661
-0.362114	0.0166319
-0.422041	-0.0225904
-0.372087	0.0109681
-0.432075	-0.0238843
-0.382063	0.0119863
-0.442036	-0.0260905
-0.392124	0.00734074
-0.452046	-0.0298663
-0.402062	0.00958928
-0.462076	-0.0319876
-0.412027	0.0130894
-0.472033	-0.0281269
-0.422125	0.0127075
-0.482036	-0.0331967
-0.432067	0.0074468
-0.492047	-0.0291663
-0.44204	0.0114772
-0.502039	-0.032921
-0.452062	0.013153
-0.512045	-0.0332179
-0.462091	0.0123257
-0.522041	-0.0327088
-0.472068	0.0167167
-0.53204	-0.0407484
-0.482048	0.00409519
-0.542039	-0.0411939
-0.492081	0.00893169
-0.552	-0.0447576
-0.502054	0.00838016
-0.562042	-0.0488093
-0.512038	0.00723467
-0.572045	-0.0471335
-0.522045	0.0135561
-0.582006	-0.0510154
-0.532025	0.0116681
-0.591997	-0.0536458
-0.542062	0.0132167
-0.602046	-0.0578034
-0.552107	0.0154228
-0.612045	-0.0611975
-0.562034	0.0168864
-0.622041	-0.0671794
-0.572064	0.0184562
-0.63201	-0.0699795
-0.582063	0.0210229
-0.642078	-0.0760039
-0.592043	0.0219563
-0.652019	-0.0765979
-0.602058	0.0239715
-0.662053	-0.0754736
-0.612064	0.0274716
-0.672098	-0.0818586
-0.622056	0.0315444
-0.681998	-0.086186
-0.632044	0.0278958
-0.692035	-0.0804586
-0.642009	0.0280655
-0.701989	-0.0852102
-0.65205	0.0281716
-0.712064	-0.0846163
-0.661996	0.0263261
-0.722048	-0.0858678
-0.672006	0.0242048
-0.732082	-0.0825374
-0.682002	0.0258594
-0.742074	-0.0839587
-0.692028	0.0281292
-0.7521	-0.0868648
-0.702088	0.0219987
-0.762099	-0.0848708
-0.712061	0.0244594
-0.772098	-0.0818798
-0.722136	0.0266231
-0.782093	-0.0842769
-0.732082	0.0226351
-0.792062	-0.0833011
-0.742077	0.02342
-0.802061	-0.0823677
-0.752103	0.0239927
-0.812011	-0.0811162
-0.76203	0.0180531
-0.822109	-0.0828132
-0.772087	0.0165046
-0.832055	-0.0834496
-0.78209	0.0185835
-0.842051	-0.0861012
-0.792062	0.0178622
-0.852103	-0.083895
-0.802084	0.0192198
-0.862026	-0.0854648
-0.812095	0.0210441
-0.872064	-0.0878406
-0.822083	0.0140864
-0.88204	-0.0866951
-0.83207	0.0141076
-0.89205	-0.090471
-0.842058	0.0176289
-0.902004	-0.086886
-0.852065	0.0141288
-0.912079	-0.0867163
-0.862072	0.0175228
-0.92206	-0.0862072
-0.872052	0.0130469
-0.932005	-0.0799919
-0.882032	0.0194956
-0.94207	-0.0819435
-0.892066	0.0182653
-0.952023	-0.0807344
-0.902088	0.0183713
-0.962018	-0.0833647
-0.912034	0.0191562
-0.972063	-0.0848072
-0.92201	0.0200047
-0.981979	-0.0830041
-0.932044	0.0174168
-0.992016	-0.0872891
-0.942043	0.0186895
-1.00205	-0.0867375
-0.952023	0.011859
-1.01203	-0.0845739
-0.962099	0.0166107
-1.02203	-0.090471
-0.972006	0.0187107
-1.03207	-0.0901528
-0.982059	0.01275
-1.04204	-0.0872467
-0.992005	0.0137894
-1.05207	-0.093165
-1.00204	0.0134076
-1.06204	-0.0880315
-1.01209	0.00738316
-1.07198	-0.0920407
-1.02204	0.0178834
-1.082	-0.0946711
-1.03208	0.0150834
-1.092	-0.0949681
-1.04204	0.0132379
-1.10206	-0.098256
-1.05202	0.0105439
-1.112	-0.0985954
-1.06204	0.0165683
-1.12211	-0.103305
-1.07201	0.013853

File: CoPc(OMe)8_CNT_VFSWV_scans_53_52_C02.txt
Ewe/V	<I>/mA
-0.122083	-0.0103931
-0.072114	0.00854562
-0.132022	-0.0078921
-0.0821094	0.00688466
-0.142055	-0.0110613
-0.0920857	0.00535735
-0.152073	-0.0100876
-0.102024	0.0103593
-0.162065	-0.0120731
-0.112065	0.00831652
-0.172049	-0.0136577
-0.122045	0.00675102
-0.18204	-0.0124359
-0.132083	0.00465097
-0.192009	-0.0153568
-0.142093	0.00505189
-0.202031	-0.0156814
-0.152089	0.00257
-0.212012	-0.0183733
-0.162038	0.00354366
-0.222041	-0.0170178
-0.171992	0.00604464
-0.232052	-0.0176287
-0.182056	0.00732376
-0.242032	-0.0163305
-0.192028	0.00583463
-0.252035	-0.0188506
-0.202031	0.00316184
-0.261962	-0.0189651
-0.212038	0.00690375
-0.272011	-0.0198624
-0.222064	0.00537644
-0.282113	-0.0186788
-0.232025	0.00709467
-0.292139	-0.0210079
-0.242036	0.00465097
-0.302111	-0.020187
-0.251993	0.00824015
-0.312099	-0.0213516
-0.261943	0.00837379
-0.322087	-0.0209315
-0.271995	0.0094811
-0.332067	-0.0205879
-0.282083	0.00512825
-0.342093	-0.0213706
-0.292131	0.00732377
-0.352108	-0.0209124
-0.302138	0.00325729
-0.362099	-0.0205115
-0.312137	0.00371549
-0.372068	-0.0208743
-0.322106	0.00556735
-0.382056	-0.0250553
-0.332052	0.00772468
-0.392074	-0.0207597
-0.342108	0.00743831
-0.40205	-0.0246735
-0.352119	0.00629283
-0.412099	-0.0267353
-0.362072	0.00583464
-0.42203	-0.0253798
-0.372098	0.00474642
-0.432021	-0.0303627
-0.382071	0.010092
-0.442066	-0.0289308
-0.39207	0.00684648
-0.452054	-0.0239671
-0.402062	0.00888926
-0.462088	-0.0263535
-0.412111	0.00176816
-0.472094	-0.0298281
-0.422087	0.00652193
-0.482059	-0.0256471
-0.432078	0.00342912
-0.492047	-0.0326537
-0.442078	0.0105884
-0.502039	-0.0271172
-0.452092	0.00698012
-0.512042	-0.0317564
-0.462084	0.00866016
-0.52206	-0.0307063
-0.472026	0.0113711
-0.532059	-0.0306682
-0.482117	0.00900381
-0.542036	-0.0305154
-0.491997	0.0124784
-0.552035	-0.0367392
-0.502046	0.013223
-0.562007	-0.0346583
-0.512057	0.0129176
-0.572018	-0.0407675
-0.522007	0.0138721
-0.582006	-0.0416457
-0.531994	0.0146931
-0.592032	-0.0430776
-0.541994	0.0185304
-0.602027	-0.0455786
-0.552039	0.0164876
-0.612049	-0.0484996
-0.561984	0.0210505
-0.62198	-0.0548952
-0.572029	0.0209932
-0.63201	-0.0574152
-0.582036	0.0225778
-0.642028	-0.0595344
-0.592028	0.0249833
-0.652035	-0.0627227
-0.602019	0.0277898
-0.662026	-0.0622454
-0.612019	0.0272552
-0.672037	-0.0624554
-0.62198	0.0294125
-0.681929	-0.0675719
-0.63199	0.0289925
-0.692009	-0.0728793
-0.641936	0.0298516
-0.702023	-0.0752466
-0.652016	0.0296225
-0.712072	-0.0707792
-0.662038	0.0283243
-0.722033	-0.0716765
-0.672037	0.031398
-0.732044	-0.067591
-0.682021	0.0278852
-0.742096	-0.069901
-0.692016	0.0273698
-0.752084	-0.0700729
-0.702065	0.0225969
-0.762095	-0.070111
-0.712129	0.0303098
-0.772056	-0.0714856
-0.722075	0.020745
-0.782021	-0.0718293
-0.732082	0.0187404
-0.792062	-0.0659109
-0.742062	0.0283052
-0.802065	-0.0693092
-0.752103	0.0190268
-0.81203	-0.0709702
-0.762061	0.0212223
-0.822067	-0.0692137
-0.772109	0.022196
-0.832047	-0.0641927
-0.782036	0.0207832
-0.842115	-0.0710274
-0.792024	0.0225587
-0.852073	-0.0689656
-0.802069	0.017404
-0.862083	-0.0727838
-0.812068	0.0175949
-0.872071	-0.0714093
-0.822117	0.0115812
-0.881998	-0.0729939
-0.832059	0.0221005
-0.892093	-0.0725166
-0.842005	0.0188932
-0.902038	-0.0722302
-0.85205	0.019065
-0.912057	-0.073032
-0.862133	0.0195423
-0.922044	-0.0738148
-0.872083	0.0196759
-0.932067	-0.0710656
-0.882013	0.0179959
-0.942001	-0.0730129
-0.892043	0.0179959
-0.952011	-0.0730511
-0.902	0.0191032
-0.962022	-0.0738339
-0.912076	0.0223678
-0.972052	-0.0741966
-0.922117	0.0191414
-0.982017	-0.0755139
-0.932032	0.0189695
-0.992028	-0.0766403
-0.942073	0.0135285
-1.00203	-0.0749984
-0.952053	0.0198668
-1.01203	-0.0729748
-0.962057	0.0189504
-1.02203	-0.0727838
-0.972067	0.0185686
-1.03202	-0.0782822
-0.982078	0.0134712
-1.04202	-0.0757812
-0.992054	0.0145021
-1.05205	-0.0804204
-1.00203	0.0163922
-1.06199	-0.0808213
-1.01203	0.0140439
-1.07206	-0.079084
-1.02206	0.0158004
-1.08206	-0.086606
-1.03202	0.0106839
-1.09202	-0.0832268
-1.04201	0.0151512
-1.102	-0.0839141
-1.05201	0.0153231
-1.11198	-0.0867588
-1.06196	0.0151512
-1.12206	-0.0912834
-1.07197	0.0197905

File: CoPc(OMe)8_CNT_VFSWV_scans_54_53_C02.txt
Ewe/V	<I>/mA
-0.122087	-8.37047e-05
-0.0721178	0.0158663
-0.132064	-0.00379786
-0.0821285	0.0185738
-0.142063	0.00416847
-0.0920743	0.0138877
-0.152073	0.0027453
-0.102074	0.0137489
-0.162073	-8.37057e-05
-0.112061	0.018192
-0.17208	-0.00575907
-0.122133	0.0131414
-0.18209	-0.00365901
-0.132102	0.0149985
-0.192036	-0.000396111
-0.142047	0.0139225
-0.202031	-0.00161102
-0.152058	0.0187474
-0.212076	-0.00530781
-0.162065	0.0190945
-0.222068	-0.00903932
-0.172076	0.0125861
-0.232082	-0.00471771
-0.182063	0.0186432
-0.242047	-0.000465534
-0.192032	0.0176019
-0.252054	-0.0081021
-0.20207	0.0190077
-0.26205	-0.00990711
-0.212107	0.0102604
-0.272049	-0.00777234
-0.222049	0.0216111
-0.282124	-0.000795295
-0.232079	0.0148076
-0.292162	-0.0114865
-0.242017	0.0146861
-0.302146	-0.0120939
-0.252058	0.0177234
-0.312084	-0.0123543
-0.262042	0.0139398
-0.322114	-0.0113129
-0.272037	0.0113017
-0.332124	-0.0113997
-0.282144	0.0136448
-0.342062	-0.010584
-0.292173	0.0139398
-0.352062	-0.0106187
-0.302108	0.0141307
-0.362126	-0.0120245
-0.31216	0.0151721
-0.372079	-0.0124931
-0.32214	0.0121001
-0.382128	-0.0110005
-0.332113	0.0208821
-0.392101	-0.0120766
-0.342154	0.013801
-0.402115	-0.00641859
-0.352134	0.0225657
-0.412038	-0.00923023
-0.362141	0.0190945
-0.422091	-0.00313833
-0.372125	0.0277377
-0.432071	-0.0132047
-0.382044	0.0159704
-0.442108	-0.014194
-0.392093	0.0178275
-0.452077	-0.013656
-0.402119	0.0167862
-0.462065	-0.0103063
-0.412088	0.0149291
-0.472098	-0.0141419
-0.422121	0.0118745
-0.482101	-0.0160511
-0.432097	0.0167515
-0.492028	-0.0151659
-0.442101	0.0180184
-0.5021	-0.0153568
-0.452119	0.0206739
-0.512118	-0.0122675
-0.462091	0.0226524
-0.522087	-0.0145411
-0.47206	0.0219235
-0.532101	-0.0166412
-0.48212	0.0193722
-0.542085	-0.0187759
-0.492081	0.0230343
-0.552058	-0.0176825
-0.502088	0.0206912
-0.562076	-0.0238265
-0.512049	0.0230169
-0.572094	-0.0258051
-0.522045	0.0246484
-0.582059	-0.0262216
-0.532036	0.02024
-0.592013	-0.0333375
-0.542055	0.0239368
-0.602073	-0.0315846
-0.552073	0.0218541
-0.612049	-0.0405922
-0.562114	0.0182961
-0.622094	-0.0460767
-0.572045	0.0230169
-0.632086	-0.0469792
-0.582074	0.0270782
-0.642043	-0.0425014
-0.592078	0.0260889
-0.651962	-0.0515611
-0.602023	0.0311221
-0.662068	-0.0535918
-0.612045	0.0304279
-0.672045	-0.0518041
-0.622014	0.0309138
-0.682093	-0.0547372
-0.632044	0.0410496
-0.692058	-0.0524463
-0.641997	0.0292477
-0.702027	-0.0556397
-0.652008	0.0308791
-0.712099	-0.0578092
-0.661988	0.0297857
-0.722144	-0.0574621
-0.672048	0.0266616
-0.73212	-0.0551364
-0.682048	0.029265
-0.742104	-0.0591109
-0.691967	0.0297857
-0.752111	-0.0579654
-0.702111	0.0256376
-0.762091	-0.0600134
-0.712145	0.0235202
-0.772113	-0.056334
-0.722132	0.0264534
-0.782097	-0.0619226
-0.73212	0.0225483
-0.792073	-0.0616449
-0.742051	0.0239194
-0.802069	-0.0588332
-0.752092	0.0227913
-0.812137	-0.0603605
-0.762076	0.0231384
-0.822109	-0.0582084
-0.772071	0.0216979
-0.832101	-0.0601696
-0.782135	0.018678
-0.842085	-0.0628945
-0.792077	0.0258112
-0.85208	-0.0593539
-0.802065	0.0201358
-0.862053	-0.0633284
-0.81206	0.0256029
-0.872178	-0.0607424
-0.822048	0.0234335
-0.882078	-0.053505
-0.832036	0.0237285
-0.89207	-0.0596837
-0.842123	0.018487
-0.902107	-0.0625821
-0.852092	0.0177407
-0.912068	-0.0635367
-0.862087	0.0131241
-0.922086	-0.0617143
-0.872113	0.0178275
-0.932047	-0.0611936
-0.882017	0.0194937
-0.942127	-0.0589026
-0.892077	0.0212119
-0.952053	-0.0605341
-0.902065	0.0185044
-0.96206	-0.0581911
-0.912072	0.0196846
-0.972048	-0.0685698
-0.922018	0.0188168
-0.982082	-0.0672161
-0.932036	0.0175325
-0.992058	-0.0645954
-0.942096	0.0182093
-1.00207	-0.0646648
-0.952111	0.0195631
-1.01208	-0.0687781
-0.962034	0.0167862
-1.02207	-0.0719889
-0.972029	0.0152241
-1.03202	-0.068188
-0.98207	0.0172201
-1.04211	-0.0650466
-0.992073	0.017949
-1.05202	-0.0664177
-1.00202	0.0160746
-1.06206	-0.072527
-1.01205	0.0124993
-1.07205	-0.0719195
-1.02208	0.0168035
-1.08207	-0.0671293
-1.03205	0.0180184
-1.092	-0.077161
-1.04209	0.0168556
-1.10205	-0.0744188
-1.0521	0.0152936
-1.11202	-0.0795387
-1.06203	0.0159531
-1.12214	-0.0811181
-1.07204	0.0116662