Folder: ElectrochemLabUtils/VFSWV_data_prep/Example_data/CoPc_VFSWV_txt_data (part 13)

File: CoPc_CNT_VFSWV_scans_73_72_C02.txt
Ewe/V	<I>/mA
-0.122334	0.02876
-0.0723793	0.0170806
-0.132295	0.0169581
-0.082348	0.0147618
-0.142427	0.0134373
-0.092309	0.0137062
-0.152388	0.0123111
-0.102282	0.0137403
-0.162411	0.0118604
-0.1123	0.0131151
-0.172387	0.0104114
-0.122311	0.0138917
-0.182436	0.0151179
-0.132291	0.0136741
-0.192393	0.0136358
-0.142389	0.0141367
-0.2024	0.0159077
-0.152392	0.0163904
-0.212365	0.0164253
-0.162388	0.0183779
-0.222394	0.0171339
-0.172406	0.0201713
-0.232382	0.0167405
-0.182424	0.018292
-0.242366	0.0181129
-0.192435	0.0195173
-0.252392	0.0139688
-0.202396	0.0199493
-0.26241	0.014707
-0.212399	0.0180194
-0.272356	0.0174205
-0.222379	0.0192528
-0.282397	0.0153933
-0.232394	0.0141655
-0.292351	0.0214324
-0.242431	0.0195255
-0.302404	0.0215165
-0.252369	0.021651
-0.312376	0.018489
-0.262368	0.0267336
-0.322379	0.0225239
-0.272394	0.0227314
-0.332352	0.0195564
-0.282355	0.0192199
-0.342389	0.0191387
-0.292385	0.0208841
-0.352369	0.0248043
-0.302392	0.0246163
-0.362368	0.0258307
-0.312353	0.0214762
-0.372387	0.0195995
-0.322417	0.0197399
-0.382317	0.0182339
-0.332359	0.0206309
-0.392335	0.0241108
-0.342389	0.0207512
-0.402346	0.0128771
-0.352338	0.0174456
-0.412326	0.0182088
-0.362368	0.0168072
-0.422306	0.0133916
-0.372398	0.012994
-0.432382	0.010673
-0.382351	0.0177603
-0.442332	0.0131543
-0.392381	0.0162318
-0.452316	0.0139861
-0.402327	0.0160877
-0.462292	0.0130667
-0.412288	0.0154409
-0.472283	0.0118683
-0.422322	0.0176336
-0.482386	0.0116142
-0.432321	0.014062
-0.492389	0.00987485
-0.442335	0.0131111
-0.502392	0.0107337
-0.452342	0.0176238
-0.512391	0.012336
-0.462368	0.017701
-0.522348	0.0180565
-0.472295	0.0234305
-0.532355	0.0160597
-0.482386	0.0178703
-0.5424	0.0164335
-0.492358	0.0227648
-0.552377	0.0188188
-0.502392	0.0211578
-0.562395	0.0161516
-0.512433	0.0187079
-0.572363	0.0151483
-0.52236	0.0220515
-0.582328	0.0156922
-0.532409	0.0207084
-0.592404	0.0143905
-0.542396	0.0220226
-0.602334	0.0161721
-0.552422	0.0181004
-0.612376	0.0153624
-0.562383	0.0169586
-0.622379	0.0119941
-0.572379	0.0175551
-0.63234	0.0115728
-0.582367	0.0167497
-0.642362	0.0124812
-0.592339	0.0164952
-0.652327	0.00850255
-0.602346	0.0162599
-0.662379	0.00948527
-0.612391	0.0184156
-0.672402	0.0125738
-0.622367	0.0167966
-0.68234	0.00746812
-0.63237	0.019732
-0.69232	0.00915136
-0.642366	0.022479
-0.70233	0.00932143
-0.65235	0.0153657
-0.712288	0.0131452
-0.662357	0.018563
-0.72234	0.00996019
-0.672405	0.0168398
-0.732343	0.0103353
-0.682366	0.0160629
-0.742335	0.0114656
-0.69235	0.0180878
-0.752304	0.0153452
-0.702357	0.0144731
-0.762257	0.00621721
-0.712337	0.0155583
-0.772321	0.00803462
-0.722337	0.0190959
-0.782271	0.00957441
-0.732313	0.0163197
-0.792274	0.00942153
-0.742385	0.0178469
-0.802315	0.0105621
-0.752296	0.014904
-0.81228	0.0104223
-0.762272	0.0160378
-0.822413	0.00956878
-0.772337	0.0122363
-0.832397	0.00839424
-0.782321	0.0137938
-0.84243	0.00717984
-0.792343	0.0158025
-0.852407	0.00756897
-0.802323	0.0124019
-0.862333	0.00934912
-0.81228	0.0155405
-0.872398	0.0126906
-0.822413	0.0137818
-0.882427	0.00935748
-0.832393	0.0151067
-0.892388	0.00828106
-0.842381	0.0150597
-0.902365	0.00546785
-0.85243	0.00938197
-0.912391	0.000987377
-0.862379	0.0111177
-0.922371	0.00237504
-0.872413	0.00486195
-0.932443	0.00343762
-0.882416	0.00632111
-0.942354	-0.00324286
-0.892419	0.00513744
-0.952407	0.00261159
-0.902411	0.0100778
-0.962375	0.00164713
-0.912402	0.00623501
-0.972382	0.00264856
-0.922363	0.00434792
-0.982339	0.00252732
-0.932362	0.00801287
-0.992339	0.0028667
-0.942362	0.00800617
-1.00236	0.00485206
-0.952353	0.00900441
-1.01239	0.00314281
-0.962379	0.00814476
-1.02233	0.000233456
-0.972298	0.0057972
-1.03236	6.91637e-05
-0.982347	0.00642014
-1.04241	0.00217987
-0.992331	0.00865042
-1.05234	1.19654e-05
-1.00236	0.0130933
-1.0623	0.00332398
-1.01232	0.0163417
-1.07233	0.00688579
-1.02237	0.0131202
-1.08229	0.00587067
-1.03237	0.0115477
-1.09232	0.00780978
-1.04231	0.0126433
-1.10236	0.00504434
-1.05233	0.00995487
-1.11231	0.000922573
-1.06228	0.00880543
-1.12229	-0.000583748
-1.0723	0.00571277

File: CoPc_CNT_VFSWV_scans_74_73_C02.txt
Ewe/V	<I>/mA
-0.122308	0.0129141
-0.0723504	0.0114088
-0.132422	0.0104337
-0.082342	0.00971285
-0.142395	0.00942384
-0.0923374	0.0173193
-0.152447	0.0121524
-0.102287	0.00967944
-0.162401	0.00944191
-0.112336	0.0128664
-0.172411	0.0122519
-0.122327	0.0069845
-0.182418	0.00374455
-0.132403	0.00370088
-0.192418	0.00422589
-0.142444	0.00347859
-0.202398	-0.000156704
-0.152451	0.00058908
-0.21237	0.000754606
-0.162389	0.00343167
-0.222408	0.00340953
-0.172377	0.00563805
-0.23238	0.00665568
-0.182384	0.00406423
-0.242349	0.00247324
-0.192379	0.0102392
-0.252375	0.00624329
-0.202421	0.00382406
-0.262401	0.00301298
-0.212424	0.00338232
-0.272404	0.00408931
-0.222377	0.00490902
-0.282384	0.0072858
-0.232388	0.00918266
-0.292368	0.00816472
-0.242383	0.0071087
-0.302371	0.00727605
-0.252363	0.012951
-0.312408	0.00896351
-0.262401	0.00783905
-0.322377	0.004613
-0.272377	0.0072985
-0.33233	0.00559377
-0.282338	0.0102682
-0.342352	0.0084974
-0.292394	0.00731677
-0.352367	0.0110474
-0.302356	0.0121278
-0.36232	0.0133953
-0.312324	0.0126276
-0.372396	0.0111197
-0.322308	0.0157099
-0.382357	0.0127142
-0.332311	0.0157071
-0.392341	0.0153873
-0.342368	0.0153725
-0.40231	0.0158139
-0.352359	0.0180258
-0.412343	0.0172943
-0.362385	0.0179863
-0.42235	0.0189092
-0.372354	0.0174447
-0.432365	0.0154801
-0.382372	0.018629
-0.442379	0.0203351
-0.392379	0.0181925
-0.452317	0.0159703
-0.402359	0.016241
-0.462316	0.0190309
-0.412332	0.018976
-0.472365	0.0223999
-0.422342	0.0225536
-0.482365	0.0190367
-0.432315	0.0235711
-0.492329	0.0231121
-0.442329	0.0265219
-0.502321	0.0257941
-0.452313	0.0290694
-0.512305	0.0252049
-0.462316	0.0234249
-0.522331	0.0181668
-0.47227	0.0219739
-0.532353	0.0164776
-0.482349	0.0207142
-0.542268	0.0178049
-0.492337	0.0213573
-0.552439	0.0150557
-0.502325	0.016503
-0.562393	0.0123909
-0.512286	0.0150765
-0.572438	0.0112638
-0.52227	0.0135891
-0.582418	0.0137654
-0.53233	0.0125116
-0.592471	0.00849953
-0.542451	0.0175302
-0.602363	0.00705975
-0.552416	0.00850958
-0.612389	0.00716983
-0.562416	0.0101795
-0.622403	0.00379349
-0.572354	0.00997282
-0.632433	0.00503261
-0.582487	0.00903104
-0.642383	0.00646446
-0.592371	0.0122341
-0.652401	0.00552604
-0.60242	0.0114749
-0.662393	0.00757735
-0.612408	0.0136483
-0.672365	0.00807535
-0.622453	0.012757
-0.68236	0.00657231
-0.632414	0.0116072
-0.69239	0.00662187
-0.642379	0.00953828
-0.70234	0.00975713
-0.652355	0.0121006
-0.712431	0.0132682
-0.66237	0.0136603
-0.722388	0.00878133
-0.672373	0.0148531
-0.732299	0.00872599
-0.682357	0.0129025
-0.742375	0.0116225
-0.692367	0.0140598
-0.752374	0.00958287
-0.702374	0.0140742
-0.76237	0.0105929
-0.712316	0.0220594
-0.772338	0.0122418
-0.722342	0.0118273
-0.782341	0.00575311
-0.732341	0.0109009
-0.792295	0.00496264
-0.742314	0.00877514
-0.80226	0.0064342
-0.752298	0.0102318
-0.812289	0.0069645
-0.762324	0.0105095
-0.822315	0.00397435
-0.772304	0.00845769
-0.832318	0.00811313
-0.782273	0.00708148
-0.842299	0.00390246
-0.792295	0.0107477
-0.852309	0.00615971
-0.802363	0.0125586
-0.862285	0.00928583
-0.81232	0.0119539
-0.872323	0.00870111
-0.822327	0.0132038
-0.882295	0.0130011
-0.832311	0.0140977
-0.892321	0.00978668
-0.842302	0.0145857
-0.902248	0.0147715
-0.852313	0.0126824
-0.912331	0.0141777
-0.862259	0.0178157
-0.922346	0.0102753
-0.872323	0.0151964
-0.932345	0.0131394
-0.88233	0.0155111
-0.94231	0.0126537
-0.892302	0.0172498
-0.952366	0.0104671
-0.902305	0.0122294
-0.962388	0.0113033
-0.912301	0.0174595
-0.972426	0.0140204
-0.922285	0.0151212
-0.982352	0.0157263
-0.932292	0.0190129
-0.992409	0.01537
-0.942337	0.0153696
-1.00235	0.0106458
-0.952389	0.0149895
-1.01236	0.0109176
-0.962377	0.0156914
-1.02236	0.0143884
-0.972357	0.0145889
-1.03238	0.0106015
-0.982364	0.0145648
-1.04241	0.00702705
-0.99239	0.00914092
-1.05235	0.00892533
-1.00243	0.00901297
-1.06239	0.00444057
-1.01241	0.0093494
-1.07236	0.00455756
-1.02241	0.00584105
-1.08242	0.00419705
-1.03244	0.00850603
-1.0924	0.00748332
-1.04237	0.0125293
-1.10237	0.00619962
-1.05239	0.0079933
-1.11239	0.00390418
-1.06235	0.00963039
-1.12238	0.00687229
-1.07233	0.015034

File: CoPc_CNT_VFSWV_scans_75_74_C02.txt
Ewe/V	<I>/mA
-0.122315	0.0278436
-0.0723533	0.0164954
-0.132326	0.0137768
-0.0823067	0.0190263
-0.142474	0.0174797
-0.0922946	0.0154872
-0.152397	0.0155343
-0.10232	0.0183923
-0.162415	0.0187426
-0.11232	0.0210755
-0.172403	0.0185166
-0.122311	0.0169475
-0.182421	0.0158798
-0.132345	0.0168159
-0.192386	0.0183893
-0.142443	0.0213223
-0.202435	0.0223138
-0.152362	0.0212049
-0.212411	0.0179879
-0.162407	0.0177914
-0.22243	0.0120201
-0.172388	0.0159007
-0.232398	0.0159607
-0.182414	0.0171672
-0.242394	0.0168144
-0.192371	0.0148704
-0.252416	0.0170111
-0.202374	0.0176836
-0.26235	0.0163744
-0.21235	0.0145954
-0.272361	0.0147844
-0.222407	0.0137819
-0.282333	0.0127889
-0.232348	0.0131606
-0.292405	0.0124136
-0.242386	0.0193605
-0.302362	0.0168816
-0.252355	0.016324
-0.312381	0.015343
-0.262362	0.01683
-0.322345	0.017297
-0.27241	0.0205338
-0.332337	0.0203046
-0.282345	0.0239951
-0.342382	0.0208084
-0.292394	0.02107
-0.352393	0.0207987
-0.302362	0.0215978
-0.362316	0.0188299
-0.312373	0.0150944
-0.372364	0.0118261
-0.322418	0.0129807
-0.382364	0.013027
-0.332333	0.0184645
-0.392351	0.0160064
-0.342355	0.0222483
-0.402324	0.0229576
-0.352347	0.0246231
-0.412304	0.0184708
-0.362384	0.0210537
-0.422292	0.0191683
-0.372349	0.0152145
-0.432318	0.0149553
-0.382383	0.0154006
-0.442283	0.0129252
-0.392351	0.0145499
-0.452347	0.015936
-0.402343	0.0152625
-0.462289	0.0136522
-0.412338	0.0158852
-0.47228	0.0146279
-0.422341	0.0186298
-0.482474	0.00695249
-0.432341	0.0111322
-0.492374	0.00910589
-0.442317	0.0143331
-0.502404	0.0113884
-0.452339	0.0104905
-0.512392	0.0110558
-0.462346	0.0160264
-0.522349	0.0144644
-0.472311	0.0144366
-0.532425	0.00768627
-0.482394	0.010991
-0.542378	0.00854938
-0.492412	0.00744589
-0.552354	0.0058621
-0.502423	0.0127587
-0.562396	0.00782879
-0.512403	0.0100502
-0.572334	0.00100549
-0.522391	0.00275275
-0.582386	0.0017728
-0.53236	0.00472462
-0.592355	0.0039208
-0.542409	0.00492986
-0.602373	0.00852233
-0.552354	0.0153226
-0.612346	0.0107893
-0.562369	0.0158235
-0.622345	0.0102395
-0.572414	0.0109919
-0.632382	0.00961736
-0.582398	0.0138166
-0.642324	0.010433
-0.592359	0.0147436
-0.652289	0.0142191
-0.602366	0.0187384
-0.662342	0.015269
-0.612361	0.0177031
-0.67236	0.0167697
-0.622349	0.0173096
-0.68234	0.0154072
-0.63231	0.0189133
-0.692317	0.0186076
-0.64229	0.0197888
-0.702343	0.0166512
-0.652362	0.0155908
-0.712285	0.0131157
-0.662281	0.0111153
-0.722311	0.00399534
-0.67236	0.00466266
-0.732291	0.0024729
-0.682306	0.00710697
-0.742301	0.00860784
-0.692301	0.00754718
-0.75232	0.00337084
-0.702343	0.00903395
-0.762266	0.00590128
-0.712342	0.00945015
-0.772299	0.00843361
-0.722311	0.0109159
-0.782317	0.0064427
-0.732329	0.0110885
-0.792301	0.00137817
-0.742259	0.00346093
-0.802262	0.00497102
-0.752316	0.00921457
-0.812281	0.00905315
-0.762315	0.011252
-0.822383	0.0093231
-0.772307	0.0123499
-0.832443	0.0093481
-0.782264	0.0121538
-0.842404	0.00496538
-0.792347	0.0123559
-0.852419	0.0129234
-0.802285	0.0103796
-0.862372	0.00669222
-0.812269	0.0065481
-0.872379	0.00791338
-0.822368	0.0131144
-0.882329	0.0118044
-0.832405	0.0113982
-0.892408	0.010573
-0.842351	0.011376
-0.902354	0.00906618
-0.852404	0.0120052
-0.912365	0.0136839
-0.862395	0.0149551
-0.922314	0.0154125
-0.872406	0.0191428
-0.932375	0.0200161
-0.88239	0.0200222
-0.942378	0.0148307
-0.89237	0.0180504
-0.952308	0.0184454
-0.902343	0.019857
-0.962296	0.0242097
-0.912384	0.0283956
-0.972345	0.0259358
-0.922314	0.0242498
-0.982336	0.0237039
-0.932333	0.0255766
-0.992381	0.0262248
-0.942305	0.0284769
-1.00237	0.0252752
-0.952331	0.0316338
-1.01228	0.0264058
-0.962387	0.0299178
-1.02234	0.0272313
-0.972322	0.0243361
-1.03232	0.0239534
-0.982344	0.0227545
-1.04233	0.0216116
-0.992358	0.0260928
-1.05231	0.0174635
-1.00245	0.0300424
-1.06235	0.0233104
-1.01235	0.0233268
-1.07236	0.0171582
-1.02234	0.022751
-1.08238	0.0218485
-1.03232	0.0237695
-1.09234	0.0199057
-1.04234	0.0261749
-1.10235	0.0200356
-1.05239	0.0267297
-1.11231	0.0203099
-1.06237	0.0245326
-1.12231	0.0214227
-1.07234	0.0273495

File: CoPc_CNT_VFSWV_scans_76_75_C02.txt
Ewe/V	<I>/mA
-0.122326	0.0232998
-0.0723602	0.0285106
-0.132348	0.0283377
-0.0823366	0.0295654
-0.14232	0.0266173
-0.0923282	0.0239416
-0.152323	0.0211313
-0.10235	0.0209613
-0.162361	0.0177179
-0.112346	0.0215808
-0.172242	0.0160513
-0.122337	0.0203317
-0.182348	0.0235796
-0.132298	0.0220875
-0.192305	0.0297882
-0.142309	0.0244207
-0.20235	0.0182444
-0.152316	0.0180041
-0.21241	0.0149018
-0.16238	0.0187952
-0.222417	0.0202797
-0.172341	0.0255865
-0.232413	0.0214563
-0.182317	0.0223189
-0.242362	0.0224569
-0.192282	0.0229943
-0.25235	0.0231789
-0.202278	0.0228168
-0.262403	0.0222247
-0.212327	0.0244498
-0.272383	0.0229388
-0.222371	0.0290469
-0.282333	0.0239054
-0.232336	0.0300861
-0.292355	0.0292843
-0.242359	0.0282469
-0.302373	0.0237768
-0.252396	0.0259259
-0.312368	0.0251171
-0.26233	0.0266485
-0.322364	0.0229633
-0.272379	0.0174765
-0.332317	0.0179125
-0.282371	0.017981
-0.342335	0.020202
-0.292366	0.0182034
-0.352346	0.0117052
-0.302369	0.0098422
-0.362345	0.0150797
-0.312368	0.0129067
-0.372371	0.0143753
-0.322364	0.0160909
-0.382302	0.0144165
-0.332283	0.0171534
-0.392301	0.0186897
-0.34237	0.0224451
-0.402358	0.0181326
-0.352312	0.0197685
-0.412334	0.0211949
-0.362349	0.0264669
-0.422348	0.0178149
-0.372383	0.017947
-0.432306	0.0170067
-0.382351	0.0143604
-0.442297	0.0174924
-0.392335	0.018028
-0.452365	0.0120846
-0.402274	0.0145284
-0.462342	0.012196
-0.412326	0.0164698
-0.472345	0.0151082
-0.422303	0.0107932
-0.482321	0.0114123
-0.432367	0.0124122
-0.492297	0.0144384
-0.442366	0.0124855
-0.502319	0.0163776
-0.452319	0.0142954
-0.512326	0.00738457
-0.462326	0.0146471
-0.522283	0.0122037
-0.472314	0.0128101
-0.532328	0.0147148
-0.482313	0.0150272
-0.542286	0.0153215
-0.492347	0.0146047
-0.5523	0.0106851
-0.502342	0.0123109
-0.562288	0.0129639
-0.512341	0.0120585
-0.572295	0.00795421
-0.522283	0.00898062
-0.582218	0.00871675
-0.532275	0.0104989
-0.592312	0.00646742
-0.542297	0.00907687
-0.602273	0.00725716
-0.552285	0.0108451
-0.612265	0.0092144
-0.562265	0.0124243
-0.622291	0.0132545
-0.572291	0.0131852
-0.632412	0.0116601
-0.582317	0.015532
-0.642404	0.0173172
-0.592301	0.0162109
-0.65238	0.0158815
-0.602334	0.0153042
-0.662368	0.011852
-0.61233	0.015528
-0.672398	0.0176395
-0.622283	0.0186577
-0.682393	0.0160993
-0.632435	0.0204894
-0.692343	0.0178741
-0.642396	0.0217335
-0.702334	0.0195656
-0.652357	0.0212195
-0.712391	0.0155041
-0.662387	0.0217708
-0.722375	0.0190047
-0.672402	0.0151189
-0.732401	0.0134654
-0.68242	0.0154405
-0.742308	0.0179368
-0.692366	0.0192141
-0.75233	0.0135856
-0.702407	0.00995838
-0.762345	0.0060863
-0.712379	0.00837819
-0.772379	0.0064904
-0.722359	0.0127055
-0.782309	0.00665233
-0.732366	0.0113493
-0.792331	0.0124515
-0.74235	0.0215046
-0.802319	0.0257147
-0.752357	0.0236279
-0.812356	0.0250911
-0.762376	0.0250563
-0.822325	0.0186722
-0.772402	0.0154404
-0.832374	0.014448
-0.782351	0.0191133
-0.842335	0.0121275
-0.792346	0.01449
-0.852384	0.0144988
-0.802414	0.0146255
-0.862352	0.0131536
-0.812349	0.0193264
-0.872371	0.0119341
-0.822329	0.0131647
-0.882347	0.00949057
-0.832359	0.0115539
-0.892358	0.0139937
-0.842369	0.0148931
-0.902342	0.0145586
-0.852372	0.0177356
-0.912295	0.00866672
-0.862364	0.00993636
-0.922333	0.00470963
-0.872329	0.00727826
-0.932339	0.00583082
-0.882309	0.00902267
-0.942327	0.00650296
-0.892335	0.0118064
-0.952304	0.0071298
-0.902353	0.00898525
-0.962326	0.0050578
-0.912349	0.0118566
-0.97231	0.0077093
-0.922306	0.0113804
-0.982244	0.0128804
-0.932339	0.015231
-0.9924	0.0153642
-0.942331	0.0231474
-1.0023	0.0255515
-0.952326	0.0326615
-1.01232	0.0194995
-0.962356	0.0188445
-1.02231	0.0171373
-0.972359	0.0207466
-1.03229	0.0178869
-0.98232	0.0185899
-1.04231	0.0154176
-0.99232	0.0198589
-1.0524	0.0172832
-1.00232	0.021139
-1.06243	0.0143433
-1.0123	0.0225529
-1.07232	0.0250744
-1.02231	0.0245638
-1.08244	0.0250486
-1.03229	0.0258337
-1.09239	0.0307089
-1.04234	0.0302097
-1.10239	0.0241474
-1.05239	0.0265457
-1.11238	0.0252089
-1.06236	0.0253265
-1.12239	0.0163525
-1.07237	0.0197544