Folder: ElectrochemLabUtils/VFSWV_data_prep/Example_data/CoPc(OMe)8_VFSWV_txt_data

Note: README.md
# Plotting of the experimental electrochemical data.
Intended to introduce students into the world of electrochemical research going on in the School of Engineering, Macquarie University. The methods will be added as soon as decently written packages become available in the group.

# 1) Variable-Frequency Square Wave Voltammetry:
Time-resolved electrochemical method allowing for the direct observation of surface electron transfer in heterogeneous electrochemical systems.
The full description of the method is given in the paper <https://pubs.acs.org/doi/abs/10.1021/acs.analchem.1c01286>

**Installation:**
Simply load zip archive from Github, extract and open folder "ElectrochemLabUtils" in VSCode.

**Example usage:**

```python
import os
import numpy as np
import VFSWV_read_and_plot as VFSWV

# electrode size
e_size = 1.0

# location of the SWV files:
current_script_location = os.path.dirname(__file__)
data_folder_name = "Example_data\CoPc_VFSWV_txt_data"
directory_to_process = os.path.join(current_script_location, data_folder_name)

# create arrays of step delay times (ms) and frequencies (Hz)
step_times = np.array([0.4, 0.6, 0.8, 1.0, 1.2, 1.4, 1.6, 1.8, 2.0, 2.2, 2.4, 2.6, 2.8, 3.0, 3.2, 3.4, 3.6, 3.8,
                    4.0, 4.2, 4.4, 4.6, 4.8, 5.0, 5.4, 5.8, 6.2, 6.6, 7, 7.4, 7.8, 8.2, 8.6, 9, 9.4,
            9.8, 10.2, 10.6, 12.8, 13.6, 14.4, 15.2, 16, 17, 18, 19, 20, 22, 24, 26, 28, 34, 38, 42, 46, 50, 55,
                    60, 65, 70, 75, 80, 85, 90, 95, 100, 125, 150, 175, 200, 300, 400, 500, 750, 1000, 1500])
frequencies = 500/step_times

# define a window of interest across x and y axis
e_boundary_highest, e_boundary_lowest = 0, -0.9
log_frequency_highest, log_frequency_lowest = 3.09, -0.47

# produce the linearly spaced arrays for interpolaiton and plotting
e_new = np.linspace(e_boundary_highest, e_boundary_lowest, 100)
freq_new = np.linspace(log_frequency_highest, log_frequency_lowest, 100)


# generate the experimentally recorded 2D VF-SWV and make the linealry spaced 2D arrays for plotting
x, y = np.meshgrid(e_new, freq_new)
sq_w_v = VFSWV.extraction_of_swv(path=directory_to_process,
                            experimental_frequencies=frequencies,
                            array_of_frequencies_for_plotting=freq_new,
                            array_of_potentials_for_plotting=e_new,
                            size_of_electrode=e_size, 
                            dlc_correction=False)

# plot the experimental data and preview only
VFSWV.plot_2D(x=x, 
        y=y, 
        z=sq_w_v, 
        figure_name=None)

VFSWV.plot_3D(x=x, 
        y=y, 
        z=sq_w_v, 
        figure_name=None)

# save figures
# figure_export_dir = os.path.join(current_script_location, 'Example_plots')
# VFSWV.plot_2D(x=x, 
#         y=y, 
#         z=sq_w_v, 
#         figure_name=figure_export_dir + "/CoPc_CNT_2D_graph")

# VFSWV.plot_3D(x=x, 
#         y=y, 
#         z=sq_w_v,

File: CoPc(OMe)8_CNT_VFSWV_scans_01_0_C02.txt
Ewe/V	<I>/mA
-0.12171	-5.78431
-0.0717563	6.49024
-0.13166	-7.25864
-0.0817518	4.95529
-0.141587	-8.18419
-0.091835	4.36307
-0.151731	-8.55457
-0.101819	4.13932
-0.16165	-8.68935
-0.111864	4.0431
-0.171688	-8.76495
-0.121806	3.97971
-0.18166	-8.8123
-0.131782	3.9591
-0.191732	-8.84781
-0.141739	3.93733
-0.201689	-8.88027
-0.151704	3.90831
-0.211711	-8.91883
-0.161849	3.88731
-0.221718	-8.95587
-0.171775	3.86211
-0.23161	-8.98565
-0.181752	3.83767
-0.241705	-9.03376
-0.191797	3.81515
-0.251708	-9.075
-0.201819	3.79224
-0.26165	-9.12922
-0.211814	3.75596
-0.271775	-9.17809
-0.221787	3.72733
-0.281763	-9.24033
-0.231679	3.69754
-0.291682	-9.2789
-0.241739	3.67349
-0.301739	-9.3293
-0.251716	3.64752
-0.311784	-9.37053
-0.261757	3.60934
-0.321829	-9.40604
-0.27179	3.58338
-0.331843	-9.44194
-0.281851	3.52381
-0.341785	-9.47554
-0.291793	3.49326
-0.351727	-9.51334
-0.301807	3.46997
-0.361699	-9.54847
-0.311799	3.45355
-0.371756	-9.57672
-0.321752	3.42224
-0.381782	-9.62407
-0.33174	3.38673
-0.391732	-9.66836
-0.341812	3.35352
-0.401845	-9.7096
-0.351822	3.3287
-0.411806	-9.74778
-0.361806	3.30082
-0.421725	-9.80467
-0.371855	3.25729
-0.431763	-9.86233
-0.381767	3.21568
-0.441739	-9.91922
-0.391743	3.16336
-0.451765	-10.0017
-0.401811	3.12556
-0.46176	-10.0681
-0.411696	3.07784
-0.47176	-10.1361
-0.42187	3.02896
-0.481725	-10.217
-0.43179	2.97818
-0.491819	-10.3091
-0.441777	2.92396
-0.501746	-10.4061
-0.451731	2.87585
-0.511795	-10.4985
-0.461703	2.80559
-0.521714	-10.6393
-0.471718	2.74144
-0.531721	-10.7848
-0.481744	2.63606
-0.541777	-10.9692
-0.491728	2.52838
-0.551696	-11.1819
-0.501666	2.38711
-0.561646	-11.4229
-0.51165	2.21987
-0.571737	-11.7142
-0.521702	2.02208
-0.58174	-12.0147
-0.531751	1.78726
-0.591716	-12.3671
-0.541667	1.52876
-0.601738	-12.7478
-0.551708	1.21795
-0.611619	-13.148
-0.56168	0.891486
-0.621718	-13.5676
-0.571698	0.539058
-0.631728	-14.0002
-0.581652	0.183576
-0.641727	-14.4573
-0.591758	-0.204744
-0.65178	-14.8956
-0.601673	-0.596881
-0.661676	-15.3362
-0.611711	-0.982146
-0.671687	-15.7643
-0.621714	-1.37467
-0.681743	-16.1797
-0.631724	-1.74275
-0.691731	-16.5703
-0.64167	-2.0883
-0.701669	-16.9052
-0.651727	-2.38384
-0.711756	-17.2297
-0.661711	-2.65341
-0.721744	-17.4718
-0.671698	-2.87907
-0.731717	-17.6596
-0.681709	-3.04707
-0.741792	-17.7746
-0.691746	-3.1452
-0.751814	-17.8204
-0.701818	-3.19446
-0.76184	-17.7845
-0.711733	-3.15742
-0.771767	-17.6596
-0.721847	-3.05357
-0.781759	-17.4764
-0.731793	-2.8806
-0.791765	-17.2293
-0.741743	-2.66716
-0.801654	-16.9258
-0.751734	-2.40751
-0.811714	-16.6131
-0.761829	-2.13183
-0.821714	-16.2694
-0.771744	-1.86952
-0.831743	-15.9407
-0.781759	-1.58964
-0.841758	-15.639
-0.7918	-1.34985
-0.851719	-15.3549
-0.801795	-1.14022
-0.861733	-15.1102
-0.811794	-0.963055
-0.871721	-14.9105
-0.821817	-0.833233
-0.881755	-14.7684
-0.831755	-0.746558
-0.891727	-14.6669
-0.841788	-0.670574
-0.901784	-14.5817
-0.851788	-0.620937
-0.911779	-14.5099
-0.861844	-0.580463
-0.921832	-14.4641
-0.871729	-0.553353
-0.93169	-14.434
-0.88169	-0.541898
-0.941616	-14.4252
-0.891781	-0.538462
-0.951719	-14.4225
-0.901837	-0.559462
-0.961714	-14.4301
-0.911836	-0.573972
-0.971679	-14.4469
-0.921782	-0.605664
-0.981732	-14.4771
-0.931789	-0.631246
-0.991635	-14.5199
-0.941731	-0.683938
-1.00168	-14.5607
-0.951711	-0.723649
-1.01164	-14.6169
-0.961894	-0.787796
-1.02163	-14.6799
-0.971744	-0.854234
-1.03167	-14.7536
-0.98169	-0.920672
-1.04165	-14.823
-0.991666	-0.982146
-1.0516	-14.8796
-1.00183	-1.02911
-1.06162	-14.9349
-1.0118	-1.08409
-1.07171	-14.9781
-1.02174	-1.10815
-1.08165	-15.017
-1.03167	-1.13946
-1.09161	-15.0227
-1.04176	-1.14175
-1.10176	-15.0254
-1.05179	-1.14175
-1.11171	-15.0201
-1.06174	-1.13641
-1.12165	-15.033
-1.0718	-1.13316

File: CoPc(OMe)8_CNT_VFSWV_scans_02_1_C02.txt
Ewe/V	<I>/mA
-0.122102	-3.57896
-0.0721484	6.26553
-0.13201	-6.92645
-0.0821208	4.97476
-0.14207	-7.54158
-0.0921697	4.66529
-0.152009	-7.69946
-0.102112	4.58033
-0.162054	-7.75368
-0.112084	4.54367
-0.172095	-7.78843
-0.122076	4.52267
-0.182052	-7.81
-0.132075	4.5053
-0.192055	-7.83902
-0.142097	4.49098
-0.202028	-7.85468
-0.1521	4.48793
-0.212088	-7.88064
-0.16208	4.47876
-0.22203	-7.9089
-0.172072	4.46044
-0.232075	-7.94345
-0.182117	4.45566
-0.242051	-7.97877
-0.192067	4.44287
-0.252028	-8.01447
-0.202096	4.41977
-0.262107	-8.06048
-0.212099	4.41175
-0.272076	-8.09924
-0.222068	4.39247
-0.282124	-8.14601
-0.232029	4.37796
-0.292169	-8.18248
-0.24204	4.36536
-0.302165	-8.22238
-0.252016	4.34245
-0.312122	-8.2533
-0.262076	4.3224
-0.322209	-8.29378
-0.272011	4.3014
-0.332128	-8.31363
-0.282113	4.26914
-0.342185	-8.33807
-0.292085	4.24833
-0.352115	-8.36403
-0.302146	4.22981
-0.362126	-8.38656
-0.312126	4.21263
-0.372133	-8.42341
-0.322129	4.19449
-0.382166	-8.45071
-0.332163	4.17521
-0.392127	-8.48488
-0.342173	4.15364
-0.402081	-8.51944
-0.352123	4.1376
-0.412126	-8.56507
-0.362122	4.11202
-0.422098	-8.59962
-0.37211	4.08777
-0.432105	-8.65193
-0.382079	4.07002
-0.442104	-8.70864
-0.392131	4.04863
-0.452111	-8.76686
-0.402077	4.02019
-0.462126	-8.82681
-0.412057	3.99728
-0.472094	-8.89058
-0.422102	3.96177
-0.482109	-8.95969
-0.432063	3.94058
-0.492104	-9.03643
-0.44207	3.90373
-0.502126	-9.12483
-0.4521	3.87166
-0.512107	-9.22697
-0.462084	3.83176
-0.522064	-9.34953
-0.472018	3.78613
-0.532078	-9.48928
-0.482098	3.72103
-0.542085	-9.65633
-0.492047	3.63225
-0.552069	-9.8545
-0.502111	3.5513
-0.562057	-10.0643
-0.51208	3.43255
-0.572052	-10.3167
-0.522056	3.29949
-0.582032	-10.5847
-0.532013	3.11888
-0.592047	-10.8816
-0.54207	2.92319
-0.602031	-11.2188
-0.552092	2.6983
-0.612095	-11.5439
-0.562042	2.44495
-0.622045	-11.8896
-0.572094	2.18531
-0.632048	-12.2388
-0.582013	1.91269
-0.642009	-12.5955
-0.592055	1.62498
-0.652065	-12.9364
-0.602061	1.34834
-0.662072	-13.2612
-0.61208	1.06694
-0.671999	-13.5664
-0.622087	0.807865
-0.682002	-13.8442
-0.632032	0.571323
-0.692009	-14.1012
-0.642035	0.354826
-0.702031	-14.2952
-0.652046	0.191594
-0.712099	-14.4666
-0.662049	0.0646362
-0.722079	-14.5624
-0.67211	-0.0102022
-0.732112	-14.5945
-0.682082	-0.0430394
-0.742096	-14.5668
-0.692066	-0.00562022
-0.752161	-14.466
-0.702107	0.0499358
-0.76211	-14.3164
-0.712133	0.169257
-0.772075	-14.1186
-0.722098	0.333443
-0.782116	-13.8752
-0.732132	0.518248
-0.79207	-13.6147
-0.742154	0.723099
-0.802073	-13.3473
-0.752126	0.911532
-0.81211	-13.1014
-0.762076	1.09175
-0.822106	-12.8557
-0.772117	1.25365
-0.83207	-12.635
-0.78209	1.39684
-0.842135	-12.459
-0.792142	1.49878
-0.852077	-12.307
-0.802122	1.57992
-0.862099	-12.1852
-0.81211	1.64712
-0.872052	-12.089
-0.82214	1.68817
-0.88207	-12.0179
-0.832105	1.72406
-0.892031	-11.9635
-0.842157	1.7506
-0.902061	-11.9179
-0.852103	1.76358
-0.91206	-11.8864
-0.86211	1.76893
-0.922083	-11.8749
-0.872147	1.77294
-0.932047	-11.8538
-0.882086	1.76358
-0.94205	-11.8568
-0.892104	1.7611
-0.952092	-11.8639
-0.902096	1.74392
-0.96211	-11.8685
-0.912156	1.71414
-0.972014	-11.8979
-0.922121	1.69294
-0.982082	-11.9217
-0.932078	1.65953
-0.99205	-11.9536
-0.942157	1.61868
-1.00206	-11.9962
-0.952099	1.5866
-1.01203	-12.0296
-0.962064	1.55186
-1.02198	-12.0882
-0.972109	1.5194
-1.03202	-12.113
-0.982063	1.48924
-1.04202	-12.1422
-0.992111	1.47244
-1.05201	-12.1682
-1.00206	1.45965
-1.06201	-12.1691
-1.01212	1.46232
-1.07209	-12.1751
-1.02209	1.46614
-1.08204	-12.169
-1.03207	1.47339
-1.09206	-12.1565
-1.04207	1.48007
-1.10206	-12.1512
-1.05208	1.48332
-1.11204	-12.148
-1.06206	1.49153
-1.12209	-12.1611
-1.07211	1.49917

File: CoPc(OMe)8_CNT_VFSWV_scans_03_2_C02.txt
Ewe/V	<I>/mA
-0.122129	-2.7565
-0.0721216	5.14792
-0.132079	-5.70231
-0.0821437	4.23096
-0.142051	-6.05225
-0.0921354	4.07498
-0.1521	-6.12881
-0.102104	4.03508
-0.162107	-6.14848
-0.11213	4.03565
-0.17206	-6.1542
-0.122118	4.01255
-0.182071	-6.17616
-0.132155	4.01503
-0.192109	-6.19601
-0.142044	4.00682
-0.202089	-6.2279
-0.152089	4.00453
-0.212054	-6.25959
-0.162076	3.99556
-0.222057	-6.28708
-0.172095	3.99785
-0.232079	-6.32641
-0.182094	3.99823
-0.242063	-6.36364
-0.19212	3.99308
-0.252073	-6.40659
-0.202081	3.98143
-0.262095	-6.45337
-0.212107	3.98525
-0.272049	-6.49231
-0.22206	3.99136
-0.282174	-6.54615
-0.232033	3.98945
-0.292192	-6.56811
-0.242082	3.9864
-0.302184	-6.60381
-0.252024	3.98162
-0.312114	-6.63435
-0.262038	3.97055
-0.322179	-6.67139
-0.272114	3.95929
-0.33214	-6.69373
-0.282163	3.93428
-0.342185	-6.71339
-0.292166	3.92454
-0.352096	-6.74184
-0.302176	3.91557
-0.362156	-6.7783
-0.312153	3.90946
-0.372159	-6.79319
-0.322118	3.898
-0.382189	-6.8329
-0.332155	3.88712
-0.392177	-6.86097
-0.342124	3.87987
-0.402146	-6.89705
-0.352123	3.87528
-0.412156	-6.94459
-0.362122	3.87796
-0.422102	-6.98869
-0.372125	3.8665
-0.432094	-7.04673
-0.38214	3.85791
-0.442101	-7.09465
-0.39212	3.85906
-0.452123	-7.1481
-0.402111	3.85352
-0.462088	-7.21683
-0.412145	3.84493
-0.472079	-7.28193
-0.422064	3.84474
-0.482105	-7.36173
-0.43209	3.83347
-0.49207	-7.44917
-0.442143	3.84264
-0.502119	-7.5496
-0.452104	3.83882
-0.512145	-7.65823
-0.462126	3.82966
-0.522114	-7.79167
-0.472125	3.82794
-0.532147	-7.95109
-0.482136	3.81381
-0.542112	-8.14028
-0.492101	3.79014
-0.552092	-8.34628
-0.502077	3.75921
-0.56208	-8.57366
-0.512076	3.70747
-0.572068	-8.82681
-0.522071	3.63588
-0.582094	-9.11815
-0.532059	3.54157
-0.592058	-9.39707
-0.542112	3.40831
-0.602103	-9.70654
-0.552096	3.27199
-0.612076	-10.0172
-0.562076	3.10628
-0.622068	-10.341
-0.572113	2.91308
-0.632059	-10.6525
-0.582032	2.71949
-0.642062	-10.9658
-0.592062	2.51674
-0.652039	-11.2478
-0.602039	2.31857
-0.662064	-11.5193
-0.612137	2.11582
-0.672048	-11.7654
-0.622075	1.93636
-0.682002	-11.9714
-0.632109	1.78172
-0.692047	-12.1292
-0.642085	1.65113
-0.702046	-12.2585
-0.652046	1.54766
-0.712076	-12.3377
-0.662061	1.49458
-0.722159	-12.3454
-0.672083	1.48332
-0.732105	-12.2957
-0.682048	1.50642
-0.742104	-12.1903
-0.692097	1.56255
-0.752168	-12.0622
-0.702119	1.62555
-0.762133	-11.8597
-0.712175	1.73685
-0.77214	-11.6455
-0.722106	1.86763
-0.782112	-11.412
-0.732109	1.986
-0.792123	-11.1699
-0.742127	2.12193
-0.802134	-10.9419
-0.752134	2.22655
-0.812045	-10.7276
-0.762202	2.31628
-0.822113	-10.545
-0.772113	2.39169
-0.832116	-10.3847
-0.782105	2.44362
-0.842119	-10.247
-0.792123	2.48944
-0.852138	-10.1411
-0.802145	2.51426
-0.862152	-10.0559
-0.81211	2.52533
-0.872128	-9.98051
-0.822144	2.53698
-0.882131	-9.92457
-0.832112	2.54137
-0.8921	-9.88333
-0.842135	2.55282
-0.902092	-9.84706
-0.852153	2.54633
-0.912064	-9.82338
-0.862083	2.54022
-0.922098	-9.81766
-0.872094	2.53201
-0.932101	-9.81231
-0.882135	2.5217
-0.942047	-9.81479
-0.892115	2.50624
-0.952073	-9.81899
-0.90213	2.48638
-0.962114	-9.84152
-0.912114	2.46309
-0.972086	-9.85565
-0.922151	2.44037
-0.982089	-9.8881
-0.932128	2.41326
-0.992054	-9.90777
-0.942119	2.38787
-1.00211	-9.9385
-0.952145	2.36725
-1.01208	-9.96867
-0.962102	2.34511
-1.02209	-9.99979
-0.972105	2.33766
-1.03211	-10.02
-0.982135	2.32773
-1.04205	-10.03
-0.9921	2.32735
-1.05202	-10.0294
-1.0021	2.33384
-1.06205	-10.0321
-1.01208	2.33747
-1.07207	-10.0223
-1.0221	2.34072
-1.0821	-10.0256
-1.03205	2.35141
-1.09209	-10.0189
-1.04207	2.36172
-1.10203	-10.0114
-1.05213	2.35828
-1.11204	-10.0088
-1.0621	2.35484
-1.12219	-10.0191
-1.07216	2.36248

File: CoPc(OMe)8_CNT_VFSWV_scans_04_3_C02.txt
Ewe/V	<I>/mA
-0.122053	-2.13298
-0.072114	4.18266
-0.13206	-4.6477
-0.0821438	3.53698
-0.142036	-4.85694
-0.0921048	3.45814
-0.152028	-4.88882
-0.102077	3.44382
-0.162069	-4.90906
-0.112099	3.42587
-0.172099	-4.92166
-0.122099	3.42339
-0.182056	-4.94705
-0.132067	3.41824
-0.19204	-4.96729
-0.142097	3.419
-0.20205	-4.9881
-0.152115	3.42702
-0.212084	-5.01998
-0.162088	3.43389
-0.222057	-5.05435
-0.172045	3.43446
-0.232063	-5.08928
-0.182056	3.44687
-0.242082	-5.13281
-0.192021	3.46043
-0.2521	-5.17519
-0.202054	3.46425
-0.26208	-5.21319
-0.212057	3.46997
-0.272064	-5.26111
-0.222076	3.46405
-0.282159	-5.31418
-0.23201	3.47837
-0.292177	-5.34912
-0.24207	3.49384
-0.302165	-5.37451
-0.252043	3.49651
-0.312168	-5.4083
-0.262038	3.48639
-0.322163	-5.43694
-0.272034	3.49097
-0.332159	-5.46118
-0.282098	3.47284
-0.342158	-5.49326
-0.29212	3.46845
-0.352123	-5.524
-0.302153	3.45699
-0.36213	-5.54481
-0.312092	3.46615
-0.372152	-5.57287
-0.322133	3.45699
-0.382117	-5.61182
-0.332082	3.45031
-0.392181	-5.63816
-0.342139	3.45775
-0.402169	-5.67558
-0.352131	3.45947
-0.412164	-5.73266
-0.362114	3.46864
-0.422087	-5.76989
-0.372079	3.47475
-0.432155	-5.8285
-0.382101	3.48124
-0.442078	-5.88463
-0.392112	3.48219
-0.452157	-5.96272
-0.402058	3.50357
-0.462198	-6.03775
-0.412042	3.5135
-0.472064	-6.10037
-0.422148	3.51961
-0.48212	-6.18036
-0.432075	3.54328
-0.492143	-6.26856
-0.442013	3.55646
-0.502084	-6.37624
-0.45213	3.57688
-0.512126	-6.50701
-0.462084	3.60686
-0.522064	-6.65421
-0.472052	3.63721
-0.532055	-6.8266
-0.482098	3.66967
-0.542093	-7.02153
-0.492005	3.68322
-0.552054	-7.24929
-0.502081	3.71377
-0.562091	-7.49709
-0.512053	3.72045
-0.572064	-7.76972
-0.522083	3.69582
-0.582094	-8.05265
-0.532082	3.6733
-0.592062	-8.35373
-0.542062	3.60266
-0.602077	-8.66415
-0.552081	3.53336
-0.612019	-8.95568
-0.56208	3.42415
-0.622041	-9.25885
-0.572098	3.297
-0.632063	-9.54198
-0.582063	3.15191
-0.642032	-9.81727
-0.592085	3.00892
-0.65205	-10.0624
-0.602046	2.87241
-0.662034	-10.2936
-0.612061	2.73018
-0.672045	-10.4933
-0.622006	2.61258
-0.682013	-10.6541
-0.632063	2.49975
-0.692043	-10.7655
-0.64207	2.40372
-0.702061	-10.8234
-0.652035	2.35122
-0.712114	-10.8749
-0.661992	2.32277
-0.722144	-10.8394
-0.672052	2.32869
-0.732059	-10.7539
-0.682029	2.35427
-0.742123	-10.6323
-0.692066	2.39704
-0.75213	-10.4607
-0.7021	2.45106
-0.762125	-10.2575
-0.712141	2.53182
-0.772125	-10.0494
-0.722174	2.60475
-0.782132	-9.82071
-0.732158	2.67806
-0.7921	-9.60784
-0.742138	2.74202
-0.802077	-9.40776
-0.752138	2.79127
-0.812125	-9.22048
-0.762114	2.82545
-0.822098	-9.05534
-0.772144	2.84912
-0.832109	-8.91349
-0.782109	2.85198
-0.842108	-8.79168
-0.792127	2.8642
-0.852122	-8.70138
-0.802092	2.85046
-0.86206	-8.62253
-0.812087	2.84855
-0.872155	-8.55934
-0.822113	2.84817
-0.882097	-8.50149
-0.832086	2.84129
-0.892127	-8.47037
-0.842089	2.82468
-0.902088	-8.43868
-0.85213	2.81628
-0.912072	-8.41864
-0.862079	2.80788
-0.922075	-8.40394
-0.87214	2.79776
-0.932063	-8.40699
-0.882074	2.78497
-0.942123	-8.41329
-0.892115	2.76894
-0.952046	-8.42284
-0.902145	2.73572
-0.962064	-8.43467
-0.912057	2.72312
-0.97209	-8.4488
-0.922094	2.70326
-0.98215	-8.48011
-0.932105	2.68188
-0.9921	-8.50798
-0.942077	2.66699
-1.00207	-8.52517
-0.952088	2.65381
-1.01207	-8.55113
-0.96211	2.65019
-1.02206	-8.56106
-0.972063	2.64675
-1.03205	-8.56812
-0.982135	2.64809
-1.04211	-8.57996
-0.992138	2.6521
-1.05206	-8.57003
-1.0021	2.66871
-1.062	-8.57767
-1.01205	2.67233
-1.072	-8.56831
-1.0221	2.67214
-1.082	-8.56889
-1.03205	2.68207
-1.09201	-8.56755
-1.04208	2.68302
-1.10207	-8.56144
-1.05206	2.67959
-1.11205	-8.56259
-1.06207	2.68264
-1.12213	-8.58912
-1.07204	2.67291

File: CoPc(OMe)8_CNT_VFSWV_scans_05_4_C02.txt
Ewe/V	<I>/mA
-0.122106	-1.67287
-0.072114	3.37184
-0.132075	-3.79832
-0.0821094	2.923
-0.142109	-3.91764
-0.0921315	2.87967
-0.152066	-3.93196
-0.102085	2.85447
-0.162111	-3.94876
-0.112092	2.85905
-0.17206	-3.95964
-0.122099	2.84702
-0.182079	-3.97702
-0.132102	2.85046
-0.192025	-3.99935
-0.142082	2.84778
-0.202081	-4.02207
-0.152096	2.85122
-0.212099	-4.06007
-0.16208	2.86554
-0.222072	-4.09157
-0.172045	2.87394
-0.232048	-4.13109
-0.182048	2.88902
-0.24207	-4.16698
-0.192055	2.90792
-0.25205	-4.21566
-0.202035	2.91976
-0.262095	-4.26148
-0.212057	2.9377
-0.272076	-4.29565
-0.222034	2.94954
-0.282128	-4.34701
-0.232082	2.96481
-0.292101	-4.37966
-0.24199	2.97131
-0.302153	-4.41631
-0.252035	2.97799
-0.312115	-4.44228
-0.261992	2.98104
-0.322167	-4.47168
-0.272034	2.98868
-0.332128	-4.50719
-0.282132	2.97589
-0.342112	-4.52437
-0.292135	2.97646
-0.352176	-4.55453
-0.302153	2.97589
-0.362111	-4.57992
-0.312107	2.98486
-0.372117	-4.61353
-0.32211	2.98505
-0.38214	-4.64808
-0.332117	2.98868
-0.39215	-4.67214
-0.342101	2.99841
-0.402111	-4.71356
-0.352081	3.00567
-0.412091	-4.76263
-0.362065	3.01789
-0.422095	-4.81895
-0.372114	3.03011
-0.432124	-4.88214
-0.382094	3.0534
-0.442078	-4.94228
-0.392082	3.06848
-0.452081	-5.00337
-0.4021	3.08967
-0.462137	-5.06924
-0.412088	3.11373
-0.472117	-5.15209
-0.422075	3.13988
-0.482094	-5.23934
-0.432094	3.1626
-0.492123	-5.33652
-0.442066	3.19219
-0.502107	-5.45794
-0.452039	3.24469
-0.512007	-5.59272
-0.462133	3.27906
-0.522075	-5.75557
-0.472083	3.34817
-0.532101	-5.93771
-0.482052	3.4106
-0.542051	-6.15344
-0.492085	3.46902
-0.552123	-6.39456
-0.502043	3.53679
-0.562072	-6.66223
-0.512042	3.59273
-0.572087	-6.9339
-0.522083	3.63511
-0.582078	-7.23115
-0.532075	3.63893
-0.592112	-7.53509
-0.542089	3.64141
-0.602027	-7.84685
-0.552069	3.60705
-0.612023	-8.13494
-0.562026	3.55684
-0.62206	-8.42933
-0.572052	3.47226
-0.632063	-8.70959
-0.582074	3.37929
-0.642024	-8.94995
-0.592066	3.27963
-0.652004	-9.19088
-0.602073	3.18322
-0.662034	-9.38619
-0.612034	3.08547
-0.672067	-9.5477
-0.622014	2.9883
-0.682025	-9.67447
-0.632059	2.91346
-0.692074	-9.75637
-0.642078	2.85828
-0.702023	-9.78673
-0.652054	2.81304
-0.71216	-9.802
-0.662107	2.80521
-0.722171	-9.73652
-0.672079	2.80177
-0.732166	-9.63171
-0.682059	2.82564
-0.742154	-9.48642
-0.692093	2.85809
-0.752084	-9.30467
-0.702119	2.86898
-0.762095	-9.10669
-0.712106	2.92281
-0.772102	-8.89898
-0.722125	2.944
-0.782124	-8.67809
-0.732147	2.99479
-0.792135	-8.46923
-0.742081	3.00758
-0.802118	-8.27526
-0.752134	3.00949
-0.812102	-8.10134
-0.762122	2.99632
-0.822128	-7.9488
-0.772079	2.99211
-0.832124	-7.82738
-0.782151	2.97474
-0.842123	-7.70595
-0.792157	2.9587
-0.852149	-7.62233
-0.802103	2.92377
-0.86206	-7.54444
-0.812118	2.91136
-0.872113	-7.48946
-0.822132	2.8999
-0.882078	-7.42646
-0.832093	2.88348
-0.89205	-7.40087
-0.842104	2.86306
-0.902084	-7.37033
-0.852107	2.85027
-0.912114	-7.35773
-0.862106	2.82907
-0.922071	-7.35162
-0.872121	2.81437
-0.932116	-7.34493
-0.882124	2.80636
-0.942058	-7.35104
-0.892096	2.77925
-0.952084	-7.36422
-0.902122	2.76626
-0.962057	-7.37281
-0.912099	2.7529
-0.972086	-7.39362
-0.922079	2.7361
-0.982059	-7.41004
-0.932093	2.73171
-0.992081	-7.43295
-0.942131	2.70116
-1.00205	-7.44975
-0.952145	2.71128
-1.01208	-7.46674
-0.962037	2.71682
-1.02206	-7.46617
-0.97209	2.70803
-1.03209	-7.48583
-0.982063	2.7256
-1.04205	-7.48564
-0.992092	2.72159
-1.05204	-7.48048
-1.00208	2.74183
-1.06203	-7.47151
-1.01211	2.73114
-1.07204	-7.48583
-1.02211	2.74469
-1.08204	-7.47915
-1.03205	2.74851
-1.09207	-7.47857
-1.04209	2.74984
-1.1021	-7.47437
-1.05203	2.74908
-1.11205	-7.47609
-1.06207	2.74679
-1.12209	-7.49957
-1.07205	2.734

File: CoPc(OMe)8_CNT_VFSWV_scans_06_5_C02.txt
Ewe/V	<I>/mA
-0.12206	-1.32999
-0.0721407	2.70479
-0.132044	-3.07189
-0.0821094	2.39952
-0.142074	-3.1433
-0.0921124	2.36153
-0.152066	-3.16105
-0.102096	2.34682
-0.162107	-3.16506
-0.11208	2.34243
-0.172072	-3.18339
-0.122087	2.32353
-0.182063	-3.20324
-0.132075	2.32621
-0.192086	-3.22119
-0.142101	2.33346
-0.202089	-3.25345
-0.152058	2.3495
-0.212038	-3.28266
-0.162076	2.36191
-0.222053	-3.3155
-0.172049	2.37374
-0.232082	-3.35406
-0.182079	2.3852
-0.242078	-3.40504
-0.192078	2.4041
-0.252062	-3.44112
-0.202073	2.42281
-0.262	-3.48809
-0.212111	2.43904
-0.272098	-3.53066
-0.222072	2.45565
-0.282124	-3.57171
-0.232048	2.47474
-0.292139	-3.6013
-0.242105	2.48562
-0.302157	-3.63375
-0.252039	2.50547
-0.312176	-3.66125
-0.262031	2.50815
-0.32214	-3.69695
-0.272091	2.51407
-0.332113	-3.72749
-0.282132	2.51197
-0.342143	-3.74754
-0.29212	2.52075
-0.352153	-3.76949
-0.302115	2.51922
-0.362153	-3.79679
-0.312107	2.5343
-0.372098	-3.82505
-0.32214	2.53468
-0.382094	-3.85751
-0.332147	2.54079
-0.392166	-3.89321
-0.342124	2.55148
-0.402138	-3.93578
-0.35205	2.56638
-0.412114	-3.98045
-0.362103	2.57936
-0.422121	-4.03257
-0.372095	2.60017
-0.432136	-4.08622
-0.382086	2.6332
-0.442089	-4.15361
-0.39212	2.65152
-0.452146	-4.22292
-0.402085	2.67902
-0.462065	-4.29947
-0.412095	2.70517
-0.472083	-4.37164
-0.422125	2.73915
-0.482128	-4.46442
-0.432082	2.77715
-0.492097	-4.56771
-0.442104	2.82239
-0.502065	-4.68588
-0.452088	2.87088
-0.512107	-4.82525
-0.462095	2.93904
-0.522064	-5.00585
-0.472064	3.02228
-0.532078	-5.19849
-0.48209	3.10055
-0.542097	-5.42835
-0.492055	3.2004
-0.552115	-5.68074
-0.502062	3.29681
-0.562065	-5.95393
-0.512084	3.39284
-0.572045	-6.24489
-0.522079	3.47379
-0.582048	-6.54806
-0.532052	3.52877
-0.592058	-6.85868
-0.542043	3.57555
-0.602027	-7.15898
-0.552081	3.58739
-0.612023	-7.45967
-0.562053	3.58433
-0.622045	-7.74032
-0.572075	3.5471
-0.632044	-8.0139
-0.582094	3.49441
-0.642062	-8.25025
-0.592024	3.43045
-0.652046	-8.45128
-0.601997	3.36134
-0.662072	-8.63322
-0.612034	3.28479
-0.672083	-8.7976
-0.622041	3.21892
-0.682013	-8.89592
-0.632059	3.16833
-0.692051	-8.95129
-0.642085	3.12289
-0.702023	-8.95969
-0.652069	3.09082
-0.712187	-8.94518
-0.662061	3.08891
-0.722113	-8.85984
-0.672033	3.07917
-0.732128	-8.73536
-0.682025	3.08356
-0.742077	-8.5834
-0.692016	3.0954
-0.752103	-8.40432
-0.702176	3.09654
-0.762114	-8.19909
-0.712141	3.10437
-0.772106	-7.98583
-0.722113	3.10895
-0.782135	-7.77487
-0.732132	3.10571
-0.792116	-7.57174
-0.742127	3.08356
-0.80213	-7.38617
-0.752103	3.06084
-0.812122	-7.2092
-0.762125	3.02591
-0.822113	-7.07078
-0.772163	2.98505
-0.832131	-6.94402
-0.782074	2.94992
-0.842119	-6.84321
-0.792104	2.91632
-0.852115	-6.74756
-0.802138	2.88406
-0.862129	-6.68036
-0.812099	2.85504
-0.87209	-6.61679
-0.822106	2.82869
-0.882047	-6.56887
-0.832097	2.81208
-0.892039	-6.53603
-0.842051	2.79089
-0.902099	-6.51579
-0.85213	2.77104
-0.912064	-6.49823
-0.862129	2.74622
-0.922086	-6.50014
-0.872102	2.72693
-0.932112	-6.49021
-0.882139	2.72331
-0.942104	-6.49842
-0.89207	2.70135
-0.952134	-6.51064
-0.902046	2.67501
-0.962057	-6.51809
-0.912118	2.66241
-0.972033	-6.53546
-0.922052	2.65859
-0.982066	-6.55512
-0.932101	2.64809
-0.992039	-6.56963
-0.942119	2.64503
-1.00202	-6.57784
-0.952038	2.64293
-1.01201	-6.60075
-0.962076	2.64732
-1.02206	-6.60934
-0.972021	2.6584
-1.03209	-6.60686
-0.982074	2.66508
-1.04204	-6.61087
-0.9921	2.67042
-1.05205	-6.60705
-1.00205	2.68627
-1.06201	-6.60591
-1.01205	2.67844
-1.07203	-6.60342
-1.02203	2.68665
-1.08205	-6.60094
-1.03202	2.69085
-1.09205	-6.60495
-1.04207	2.68627
-1.1021	-6.61316
-1.05204	2.68551
-1.11198	-6.61202
-1.06208	2.67653
-1.12211	-6.63359
-1.07201	2.6752