Folder: ElectrochemLabUtils/VFSWV_data_prep/Example_data/CoPc_VFSWV_txt_data (part 10)

File: CoPc_CNT_VFSWV_scans_55_54_C02.txt
Ewe/V	<I>/mA
-0.122539	0.0125323
-0.0725353	0.0352354
-0.132504	0.0241147
-0.0824582	0.0331672
-0.142538	0.0263102
-0.0924384	0.0329922
-0.152495	0.0247988
-0.102506	0.0296353
-0.162494	0.0196441
-0.112513	0.0284102
-0.172493	0.0211078
-0.122577	0.0285375
-0.182481	0.0172577
-0.132458	0.0297307
-0.192492	0.0174963
-0.142492	0.0308444
-0.202487	0.0195964
-0.152502	0.030908
-0.212463	0.0138371
-0.162486	0.0317035
-0.22244	0.0187532
-0.172478	0.0238283
-0.232477	0.0178622
-0.182462	0.028108
-0.242465	0.0164145
-0.19248	0.0255943
-0.252453	0.014203
-0.202521	0.0285216
-0.262429	0.011928
-0.212513	0.0229851
-0.272478	0.0105757
-0.22247	0.0233987
-0.282431	0.00763241
-0.232485	0.0268829
-0.292472	0.0113393
-0.24253	0.0197396
-0.302472	0.0154758
-0.252434	0.0243851
-0.312448	0.00796651
-0.262425	0.0221578
-0.322424	0.0096211
-0.272459	0.0264852
-0.332427	0.0114825
-0.28245	0.0265806
-0.342434	0.010337
-0.29245	0.0205668
-0.352407	0.00586645
-0.302453	0.0301444
-0.362444	0.0137894
-0.312433	0.0248624
-0.372386	0.0124848
-0.322447	0.024051
-0.382397	0.00935064
-0.332412	0.0234783
-0.392411	0.00495961
-0.342373	0.022651
-0.402395	0.00354366
-0.352464	0.0211396
-0.412417	0.00219135
-0.362421	0.0228419
-0.422401	0.00222317
-0.372421	0.024592
-0.432523	0.00112542
-0.382462	0.0299057
-0.442499	0.00553235
-0.39243	0.027042
-0.452533	-0.00479292
-0.402407	0.0195168
-0.462509	-0.0087703
-0.41244	0.022476
-0.472497	-0.00919986
-0.422397	0.0240829
-0.482519	-0.0125409
-0.432523	0.0259443
-0.492484	-0.0146727
-0.442518	0.0277898
-0.502487	-0.0127
-0.452494	0.028283
-0.512475	-0.0195251
-0.462482	0.0321331
-0.522432	-0.0258571
-0.472474	0.0289989
-0.532473	-0.0261117
-0.482496	0.027917
-0.542487	-0.0295163
-0.492522	0.0341377
-0.552468	-0.0353869
-0.502525	0.0368741
-0.56244	-0.0355778
-0.512505	0.0422993
-0.572413	-0.0346233
-0.522481	0.0398651
-0.582435	-0.0369938
-0.532427	0.0427765
-0.592461	-0.0397461
-0.542476	0.042697
-0.602502	-0.0470486
-0.552452	0.0399128
-0.612459	-0.0433258
-0.562471	0.0440175
-0.62239	-0.0454736
-0.5725	0.0413447
-0.632461	-0.0461895
-0.582458	0.0412969
-0.642487	-0.0448849
-0.592434	0.0405015
-0.652441	-0.0474145
-0.602498	0.0395469
-0.662398	-0.045919
-0.612444	0.037415
-0.672474	-0.039412
-0.622466	0.042172
-0.68237	-0.0467941
-0.632419	0.0367468
-0.692445	-0.0475895
-0.642411	0.0356491
-0.702418	-0.0485282
-0.652391	0.0359354
-0.712379	-0.0418303
-0.662413	0.0423629
-0.722367	-0.0435008
-0.672416	0.0322285
-0.732446	-0.0490055
-0.682438	0.0309717
-0.742377	-0.0501032
-0.69248	0.0355536
-0.752364	-0.0508987
-0.702448	0.0345672
-0.762409	-0.0480827
-0.712467	0.0352831
-0.772424	-0.0515669
-0.722405	0.0352354
-0.782469	-0.0506601
-0.732423	0.0348377
-0.792342	-0.0496896
-0.742434	0.0336922
-0.802345	-0.0489737
-0.75241	0.0335331
-0.812386	-0.0451554
-0.762448	0.0312262
-0.822348	-0.0461099
-0.77242	0.0325149
-0.832515	-0.0457281
-0.782385	0.031083
-0.842495	-0.0478123
-0.792361	0.0300807
-0.852483	-0.0451236
-0.80238	0.0313694
-0.86252	-0.0454417
-0.812386	0.0278693
-0.872458	-0.0436758
-0.822378	0.0309399
-0.882484	-0.0418621
-0.832499	0.0255306
-0.89246	-0.0334937
-0.842487	0.0222373
-0.902517	-0.0393961
-0.852494	0.0203441
-0.912432	-0.0407803
-0.862493	0.0220942
-0.922428	-0.0386484
-0.872515	0.0254511
-0.932503	-0.0352915
-0.882476	0.0237965
-0.942479	-0.0302482
-0.892449	0.0247829
-0.952513	-0.0286413
-0.902486	0.0261352
-0.962466	-0.0237889
-0.912493	0.0254988
-0.972389	-0.0282913
-0.922504	0.0219032
-0.982453	-0.029564
-0.932457	0.0231601
-0.992487	-0.0363574
-0.942495	0.016144
-1.00244	-0.0319982
-0.95246	0.0166531
-1.01241	-0.0338119
-0.962524	0.0171304
-1.02242	-0.0308368
-0.972424	0.0153963
-1.0325	-0.0335573
-0.982503	0.0170827
-1.04241	-0.0310118
-0.992418	0.0198827
-1.05243	-0.0349415
-1.00244	0.0174645
-1.06244	-0.0324755
-1.01251	0.0141394
-1.07244	-0.0379006
-1.02248	0.0199782
-1.08236	-0.0379484
-1.03245	0.0186736
-1.09241	-0.0389348
-1.04248	0.0171145
-1.10248	-0.0404939
-1.05243	0.0170986
-1.11246	-0.0442644
-1.06241	0.0172895
-1.12239	-0.0472395
-1.07248	0.0169395

File: CoPc_CNT_VFSWV_scans_56_55_C02.txt
Ewe/V	<I>/mA
-0.122516	-0.000411698
-0.072501	0.0209462
-0.132485	0.011239
-0.082485	0.0189637
-0.142469	0.00778783
-0.0924918	0.0209609
-0.152487	0.014088
-0.102514	0.0201532
-0.16246	0.0105634
-0.11249	0.0206672
-0.172512	0.00677452
-0.122432	0.0197861
-0.1825	0.0129572
-0.132504	0.0193602
-0.192484	0.0114152
-0.142484	0.0178475
-0.202464	0.0136327
-0.152472	0.0174657
-0.212402	0.00515909
-0.162494	0.022547
-0.222482	0.0096676
-0.17247	0.0164818
-0.232443	0.0103578
-0.182496	0.0149398
-0.242423	0.00602555
-0.192423	0.016893
-0.252445	0.00573183
-0.202495	0.0159678
-0.262494	0.00206041
-0.212429	0.0154978
-0.27244	0.0135887
-0.222444	0.0191693
-0.282416	0.00721509
-0.23247	0.00847806
-0.292385	0.00740601
-0.242492	0.015351
-0.302411	0.00774378
-0.252426	0.0178769
-0.312372	0.00395486
-0.262421	0.0164671
-0.322436	0.00248629
-0.272478	0.0154538
-0.332389	0.00322058
-0.282424	0.0157475
-0.342423	-0.00181662
-0.29243	0.0137943
-0.352422	0.00114989
-0.302399	0.0163937
-0.36244	0.00258909
-0.312467	0.0156887
-0.37244	0.00113521
-0.322443	0.019507
-0.382435	0.00197229
-0.33242	0.0182294
-0.392411	0.00275064
-0.342427	0.018714
-0.40243	-0.000509592
-0.352441	0.0185525
-0.412459	-0.00159633
-0.362475	0.0184497
-0.422356	-0.00131731
-0.372405	0.0160265
-0.432515	-0.00178725
-0.382446	0.0203294
-0.442488	-0.00468033
-0.392377	0.0173482
-0.45251	-0.00708879
-0.40243	0.0198595
-0.462471	-0.00754405
-0.41233	0.0191399
-0.472474	-0.0119351
-0.422424	0.0254988
-0.482439	-0.014931
-0.432462	0.0216805
-0.492476	-0.012126
-0.442507	0.0248673
-0.502456	-0.0168107
-0.45243	0.0228847
-0.512448	-0.017501
-0.46252	0.0278485
-0.522443	-0.0215542
-0.472459	0.0247939
-0.532446	-0.0257837
-0.482435	0.0277017
-0.542476	-0.0305712
-0.492468	0.024647
-0.55241	-0.0286915
-0.502491	0.0345305
-0.562436	-0.0282362
-0.512463	0.0325039
-0.572478	-0.0374295
-0.522428	0.0341927
-0.582397	-0.036328
-0.532496	0.0328417
-0.592434	-0.0343014
-0.542442	0.0368362
-0.602433	-0.0393092
-0.552464	0.0402139
-0.61244	-0.0371064
-0.562444	0.0367187
-0.622432	-0.0427163
-0.572416	0.0393915
-0.632427	-0.0389568
-0.582458	0.0377467
-0.642445	-0.0423051
-0.592445	0.0371005
-0.652376	-0.041659
-0.602418	0.0388187
-0.662364	-0.0451395
-0.612394	0.035955
-0.672451	-0.0408659
-0.622478	0.0364397
-0.682408	-0.0416736
-0.632442	0.0375558
-0.69243	-0.0415415
-0.642426	0.0362047
-0.702445	-0.040631
-0.652406	0.0358375
-0.712394	-0.0379875
-0.662409	0.0373502
-0.722344	-0.0376791
-0.672367	0.0368655
-0.732381	-0.0362546
-0.682408	0.0373942
-0.742392	-0.0368274
-0.692392	0.0303304
-0.752422	-0.0449926
-0.702391	0.0394943
-0.762417	-0.0441996
-0.71244	0.0313584
-0.772382	-0.0406163
-0.722363	0.0343249
-0.782366	-0.0392358
-0.73237	0.0332088
-0.79235	-0.0399554
-0.742384	0.0312409
-0.802395	-0.038854
-0.752399	0.0350886
-0.812383	-0.0379728
-0.762352	0.0362487
-0.822363	-0.0389568
-0.772409	0.0332675
-0.832515	-0.0395736
-0.782377	0.032592
-0.842476	-0.0426723
-0.792457	0.0304919
-0.852494	-0.0363868
-0.802364	0.0330032
-0.862516	-0.0357259
-0.812402	0.033341
-0.872515	-0.0337874
-0.822386	0.030815
-0.882538	-0.0322307
-0.832454	0.0258953
-0.892495	-0.0318048
-0.842472	0.0286562
-0.902433	-0.0272963
-0.852509	0.032592
-0.912436	-0.0273551
-0.862474	0.0277163
-0.922454	-0.0274872
-0.872451	0.0265121
-0.93245	-0.0220388
-0.882492	0.0363515
-0.942495	-0.0132862
-0.89243	0.0296549
-0.952418	-0.0197185
-0.902429	0.0289206
-0.962436	-0.0195863
-0.91244	0.0294199
-0.972466	-0.0157387
-0.922443	0.0281569
-0.982423	-0.0183234
-0.93245	0.0335759
-0.992441	-0.017031
-0.942468	0.0290087
-1.00245	-0.0174128
-0.95241	0.0306829
-1.01243	-0.0178828
-0.962424	0.0319899
-1.02239	-0.0168988
-0.972424	0.0294493
-1.03245	-0.0228319
-0.982396	0.0275989
-1.0424	-0.0207612
-0.992441	0.0278338
-1.05241	-0.0242123
-1.00239	0.0276429
-1.06241	-0.0239333
-1.0124	0.0290968
-1.07246	-0.0246529
-1.0225	0.0272464
-1.08243	-0.0253872
-1.03242	0.0244708
-1.09247	-0.0238746
-1.04242	0.0290821
-1.10244	-0.0259306
-1.05247	0.0285094
-1.11247	-0.0290439
-1.06244	0.0288031
-1.12246	-0.0297782
-1.0724	0.0358816

File: CoPc_CNT_VFSWV_scans_57_56_C02.txt
Ewe/V	<I>/mA
-0.122566	0.0076067
-0.0725507	0.0211275
-0.132534	0.0156371
-0.0825423	0.0216147
-0.142499	0.0151104
-0.0925224	0.0149261
-0.152495	0.0137806
-0.102522	0.021799
-0.162502	0.0154133
-0.112551	0.0207457
-0.172566	0.010173
-0.122524	0.0151104
-0.182512	0.00894851
-0.132489	0.0178754
-0.192469	0.00804002
-0.142476	0.0200479
-0.202453	0.00814535
-0.152529	0.0164271
-0.212479	0.0107392
-0.16249	0.0189024
-0.222466	0.0115686
-0.172547	0.0156503
-0.2325	0.00900118
-0.1825	0.0162822
-0.242526	0.00696037
-0.19248	0.021325
-0.252499	0.0101072
-0.202495	0.0167299
-0.26244	0.00959367
-0.212452	0.0176121
-0.272485	0.01278
-0.222463	0.0181387
-0.282454	0.00747386
-0.232466	0.0208774
-0.292438	0.0136753
-0.242526	0.022431
-0.302506	0.0102125
-0.252472	0.0205087
-0.312448	0.00761869
-0.26249	0.0192842
-0.322478	0.00586755
-0.272505	0.0194685
-0.332431	0.00420857
-0.282511	0.0156634
-0.342461	0.00802686
-0.292457	0.0180597
-0.35243	0.00532772
-0.302476	0.0170986
-0.362494	0.0021546
-0.312456	0.0164007
-0.372405	0.0042744
-0.322497	0.0162296
-0.38245	-0.000952695
-0.332496	0.0188629
-0.392446	0.00472207
-0.342472	0.0205482
-0.402445	0.00595972
-0.352468	0.0169142
-0.412471	0.0048274
-0.362475	0.0190604
-0.422413	-0.00184802
-0.372531	0.0163744
-0.432523	-0.00457348
-0.382446	0.0176647
-0.442526	-0.00459981
-0.392427	0.0207325
-0.452498	-0.00191385
-0.402437	0.0224178
-0.46249	-0.00355966
-0.412417	0.0200479
-0.472481	-0.00254584
-0.422455	0.0223915
-0.482523	-0.00707512
-0.432511	0.0246166
-0.492488	-0.00970842
-0.442526	0.0246166
-0.502498	-0.0116307
-0.452517	0.025512
-0.512528	-0.0111436
-0.462498	0.0264468
-0.522527	-0.0163707
-0.472585	0.0258411
-0.532526	-0.0213476
-0.482538	0.0255383
-0.542499	-0.0189908
-0.492469	0.0322927
-0.552487	-0.0230592
-0.502487	0.0309234
-0.562494	-0.0237571
-0.512478	0.0308971
-0.5725	-0.027391
-0.522497	0.0317529
-0.582477	-0.0302613
-0.5325	0.0317792
-0.592487	-0.0306695
-0.542522	0.0322795
-0.602464	-0.030077
-0.552475	0.0324902
-0.612444	-0.0341718
-0.562452	0.0343335
-0.622489	-0.040676
-0.572462	0.0323849
-0.632484	-0.040202
-0.58245	0.0276186
-0.642461	-0.0400572
-0.592438	0.0284218
-0.652445	-0.0420585
-0.602452	0.0342677
-0.662364	-0.0374502
-0.612436	0.0354527
-0.672504	-0.0362257
-0.622458	0.0314106
-0.682492	-0.0386089
-0.632488	0.0288036
-0.692399	-0.0403205
-0.642426	0.0278161
-0.702441	-0.0393594
-0.652483	0.0275133
-0.712455	-0.0375161
-0.662455	0.0274079
-0.722405	-0.0389907
-0.672466	0.025354
-0.732389	-0.0407155
-0.68245	0.0261571
-0.742415	-0.0418083
-0.69243	0.0272894
-0.752361	-0.0426773
-0.702406	0.0281453
-0.762402	-0.0399387
-0.712432	0.0291986
-0.772435	-0.0412027
-0.722397	0.0314501
-0.78245	-0.0395832
-0.7324	0.025038
-0.79243	-0.0363311
-0.742415	0.0294751
-0.802414	-0.0380296
-0.752383	0.0297647
-0.812447	-0.0360414
-0.76244	0.0303441
-0.822447	-0.031657
-0.772348	0.0264863
-0.832496	-0.0364364
-0.782419	0.0271446
-0.842491	-0.0364101
-0.792449	0.036585
-0.852452	-0.027865
-0.802406	0.0339912
-0.862531	-0.0319598
-0.812348	0.0233658
-0.872519	-0.0324338
-0.822409	0.02646
-0.88253	-0.033237
-0.83248	0.026065
-0.892438	-0.0252449
-0.84251	0.0293566
-0.902483	-0.031104
-0.852502	0.0252486
-0.912543	-0.0181613
-0.862467	0.0206535
-0.922466	-0.0277202
-0.872481	0.0203112
-0.932526	-0.0235859
-0.882522	0.0189287
-0.942426	-0.0255609
-0.892487	0.0179544
-0.952437	-0.0242311
-0.902505	0.0188497
-0.962455	-0.0218743
-0.91247	0.0165719
-0.972416	-0.0264825
-0.922439	0.0164534
-0.982526	-0.0265747
-0.932427	0.0175331
-0.992498	-0.0257452
-0.942502	0.019982
-1.00246	-0.0222166
-0.952448	0.0211275
-1.01248	-0.0195701
-0.962432	0.0197845
-1.02242	-0.0233489
-0.972489	0.02014
-1.03246	-0.0244681
-0.98245	0.019666
-1.04246	-0.0266274
-0.992456	0.0187312
-1.0525	-0.0267854
-1.00248	0.0170591
-1.06248	-0.0288657
-1.01248	0.0190209
-1.0724	-0.027549
-1.02247	0.0192184
-1.08241	-0.0286023
-1.03243	0.0224837
-1.09242	-0.030709
-1.04243	0.0238135
-1.10241	-0.030551
-1.05244	0.0197055
-1.11245	-0.0324206
-1.06238	0.0209695
-1.1224	-0.032289
-1.07247	0.0166772

File: CoPc_CNT_VFSWV_scans_58_57_C02.txt
Ewe/V	<I>/mA
-0.122573	0.00123017
-0.0726032	0.0177514
-0.13256	0.00731884
-0.08261	0.017776
-0.142548	0.00967139
-0.0925711	0.0168153
-0.152608	0.00949895
-0.102563	0.0142657
-0.162543	0.00694933
-0.112547	0.0167537
-0.172557	0.00861213
-0.122561	0.0191925
-0.18253	0.00868603
-0.132545	0.0179608
-0.192498	0.0102133
-0.142563	0.0146967
-0.202551	0.0112849
-0.152521	0.0169015
-0.212539	0.00933883
-0.162558	0.0150663
-0.2225	0.0050525
-0.172531	0.0230723
-0.232503	0.00455982
-0.182499	0.0158422
-0.242529	0.00657982
-0.192533	0.0161748
-0.252498	0.00781152
-0.202494	0.0158669
-0.262485	0.0072203
-0.212524	0.0179484
-0.272557	0.0111494
-0.222538	0.0156082
-0.282488	0.00756518
-0.232526	0.0194142
-0.29254	0.0110755
-0.242491	0.0247598
-0.30252	0.00614872
-0.252501	0.0182687
-0.312478	0.00926493
-0.262489	0.0195866
-0.322496	0.00637043
-0.272485	0.015793
-0.332484	0.00422726
-0.282514	0.0181455
-0.342475	0.00925261
-0.292483	0.0177637
-0.352467	0.00593933
-0.302498	0.0187491
-0.362481	0.00630884
-0.312474	0.0209292
-0.372473	0.00694933
-0.322523	0.0206336
-0.382518	0.00965908
-0.332461	0.0233187
-0.392479	0.00712177
-0.342502	0.0226166
-0.402501	0.00937578
-0.352478	0.0221732
-0.412394	0.00766372
-0.362478	0.0230108
-0.42245	0.00768835
-0.372515	0.0215204
-0.432465	0.00561909
-0.382461	0.0222964
-0.442471	0.00343897
-0.392471	0.0282332
-0.452574	0.00469531
-0.402433	0.0283933
-0.462523	0.00507714
-0.412458	0.0274079
-0.472534	0.00199787
-0.422442	0.0274572
-0.482537	0.00162836
-0.432438	0.0248337
-0.492559	-0.00186968
-0.442433	0.0291446
-0.50252	-0.000995167
-0.452509	0.0315711
-0.512565	-0.00265797
-0.462562	0.0298221
-0.5225	-0.00608211
-0.472511	0.0297974
-0.532495	-0.00966637
-0.482575	0.03316
-0.542509	-0.0090382
-0.492521	0.0351061
-0.552554	-0.0139527
-0.502577	0.0353032
-0.562508	-0.0136817
-0.512519	0.0379144
-0.572477	-0.0159111
-0.522538	0.0428905
-0.58251	-0.0172537
-0.532533	0.0362516
-0.592502	-0.0238187
-0.542509	0.0433708
-0.602501	-0.0199265
-0.552535	0.0397496
-0.612481	-0.0231166
-0.562485	0.0417203
-0.622511	-0.0232151
-0.572507	0.0377666
-0.632461	-0.020296
-0.58248	0.0439497
-0.642475	-0.0250504
-0.592471	0.0429644
-0.652493	-0.0262205
-0.602532	0.037939
-0.66247	-0.0267871
-0.612527	0.0396511
-0.672477	-0.0261958
-0.622446	0.0397373
-0.68251	-0.030125
-0.632491	0.0366704
-0.692444	-0.027329
-0.642433	0.0375818
-0.702459	-0.025309
-0.652497	0.0370399
-0.712412	-0.0274275
-0.66247	0.0365472
-0.722431	-0.0246562
-0.672438	0.0353647
-0.732426	-0.0263806
-0.682476	0.0375202
-0.742425	-0.028068
-0.692475	0.0340838
-0.752432	-0.0283144
-0.702409	0.0369783
-0.762416	-0.0246808
-0.712485	0.0379636
-0.772465	-0.0304699
-0.722434	0.0327289
-0.782445	-0.0269349
-0.732468	0.0378035
-0.792387	-0.0305561
-0.742402	0.03922
-0.80247	-0.0250257
-0.752467	0.0352908
-0.812401	-0.0212321
-0.762462	0.0440113
-0.822427	-0.0259126
-0.772423	0.0327412
-0.832449	-0.0225254
-0.782399	0.0346873
-0.842402	-0.0230673
-0.79244	0.0330615
-0.852535	-0.0213922
-0.802443	0.0290338
-0.862523	-0.0227348
-0.81242	0.0314233
-0.872541	-0.0237078
-0.822423	0.0291816
-0.882521	-0.0229811
-0.832464	0.0298467
-0.892521	-0.0194831
-0.842448	0.0292801
-0.902512	-0.0193599
-0.852547	0.0277282
-0.912561	-0.0166378
-0.86255	0.0266073
-0.922534	-0.0175739
-0.872557	0.0275065
-0.93254	-0.0171182
-0.882518	0.0256836
-0.942551	-0.014741
-0.89254	0.0254865
-0.952485	-0.0143961
-0.902524	0.0287382
-0.962515	-0.0158126
-0.912557	0.0262378
-0.972518	-0.0126594
-0.922503	0.0249938
-0.982491	-0.0150243
-0.932491	0.0230231
-0.992501	-0.0177217
-0.942521	0.023294
-1.00252	-0.0136571
-0.952543	0.0250184
-1.01246	-0.0189534
-0.962427	0.0219884
-1.02246	-0.0120189
-0.972488	0.0236389
-1.03248	-0.0139773
-0.98246	0.0233926
-1.04246	-0.0172783
-0.992486	0.027876
-1.05248	-0.0186701
-1.00251	0.0215697
-1.06243	-0.014741
-1.01249	0.0238237
-1.07248	-0.0186085
-1.02246	0.0275681
-1.08241	-0.0247547
-1.03251	0.0197344
-1.09251	-0.0256785
-1.04245	0.0242794
-1.10246	-0.0270704
-1.05248	0.0201286
-1.11242	-0.0244961
-1.06241	0.0191925
-1.12242	-0.0237571
-1.07254	0.0209045

File: CoPc_CNT_VFSWV_scans_59_58_C02.txt
Ewe/V	<I>/mA
-0.122565	0.0278436
-0.0726184	0.0326749
-0.132553	0.0258919
-0.0825833	0.0298112
-0.142563	0.0232191
-0.0926092	0.029216
-0.152524	0.0221522
-0.102574	0.0300134
-0.162543	0.0232977
-0.112558	0.032091
-0.172523	0.0214334
-0.122565	0.031361
-0.182537	0.0236907
-0.132545	0.02907
-0.192537	0.0234886
-0.142533	0.0333937
-0.202555	0.0208046
-0.152544	0.0322819
-0.212527	0.0223992
-0.162531	0.027655
-0.222538	0.0242522
-0.172553	0.0320348
-0.232526	0.0220736
-0.182549	0.0333263
-0.242506	0.0221971
-0.192567	0.030193
-0.252505	0.0220287
-0.202486	0.0326525
-0.262531	0.0212313
-0.21252	0.0289016
-0.272507	0.0204115
-0.222565	0.0268801
-0.282472	0.0189853
-0.232553	0.0236795
-0.292506	0.0183227
-0.24254	0.0262288
-0.302467	0.0157846
-0.252517	0.0285197
-0.312501	0.0177499
-0.262474	0.0269812
-0.322507	0.0142012
-0.272523	0.0247127
-0.332514	0.0151333
-0.282526	0.0259929
-0.342475	0.013853
-0.292514	0.0254314
-0.352467	0.0120674
-0.302505	0.0276325
-0.362504	0.0167504
-0.312493	0.0258469
-0.372504	0.0146055
-0.322519	0.0260154
-0.382434	0.0115845
-0.332503	0.0262849
-0.392475	0.0114161
-0.342479	0.0250159
-0.402455	0.011753
-0.352494	0.0273293
-0.412508	0.00894541
-0.362466	0.0258469
-0.42245	0.0066769
-0.3725	0.0231068
-0.432472	0.00872081
-0.382495	0.021119
-0.442494	0.00883311
-0.39246	0.0340562
-0.452566	0.00663198
-0.402425	0.024241
-0.462558	0.00830529
-0.412447	0.0292834
-0.472553	0.00612662
-0.422435	0.031361
-0.482537	0.00355489
-0.432445	0.0321808
-0.492548	0.0034089
-0.442437	0.0288454
-0.502555	0.004633
-0.452516	0.0283064
-0.512519	-0.00155487
-0.462523	0.029654
-0.522507	-0.00930374
-0.472477	0.0312936
-0.532529	-0.00456458
-0.482526	0.0338541
-0.542513	-0.00674324
-0.492521	0.0347525
-0.552505	-0.0073946
-0.502497	0.0356509
-0.562477	-0.00754059
-0.512531	0.0359991
-0.572549	-0.0152109
-0.522545	0.0337418
-0.582487	-0.012145
-0.532545	0.0371109
-0.592513	-0.0167045
-0.542509	0.0386494
-0.602516	-0.0178949
-0.552562	0.0400981
-0.612531	-0.0185912
-0.562496	0.0341236
-0.62245	-0.0203206
-0.572542	0.0318102
-0.63248	-0.0205789
-0.582491	0.0362686
-0.642486	-0.024487
-0.592498	0.0356846
-0.652486	-0.0271149
-0.60252	0.0343707
-0.662416	-0.0235662
-0.6125	0.0321808
-0.672538	-0.0256999
-0.622496	0.033652
-0.682438	-0.0224094
-0.632525	0.0350782
-0.692483	-0.022634
-0.642464	0.0323156
-0.702478	-0.0254865
-0.652455	0.02907
-0.712454	-0.0297428
-0.66245	0.0300807
-0.722461	-0.0261828
-0.672515	0.0367403
-0.732384	-0.0274069
-0.682502	0.0293732
-0.742441	-0.0214212
-0.692521	0.0322033
-0.752394	-0.0274855
-0.702474	0.0360103
-0.762424	-0.0275866
-0.712496	0.0362461
-0.772461	-0.0243747
-0.722457	0.0356397
-0.782411	-0.0198265
-0.732418	0.0314508
-0.792414	-0.0178163
-0.742448	0.0361451
-0.802371	-0.021365
-0.752463	0.030047
-0.812439	-0.021803
-0.762424	0.035359
-0.822419	-0.0217693
-0.772473	0.0359654
-0.832456	-0.0224544
-0.782472	0.0268689
-0.842456	-0.020096
-0.792448	0.0293283
-0.852524	-0.0265085
-0.80244	0.0303727
-0.862569	-0.020534
-0.812416	0.0299123
-0.87253	-0.016536
-0.822446	0.0259031
-0.882518	-0.0191864
-0.832392	0.0322482
-0.892543	-0.0134589
-0.842425	0.0242298
-0.902531	-0.0163676
-0.852527	0.0232977
-0.912504	-0.0131669
-0.862511	0.0237132
-0.922507	-0.0105503
-0.872541	0.0280593
-0.932487	-0.00984279
-0.882514	0.0305861
-0.94252	-0.0120552
-0.892578	0.0281267
-0.952504	-0.013122
-0.902485	0.0216468
-0.962462	-0.011123
-0.912481	0.0215233
-0.972449	-0.0188495
-0.922511	0.0196254
-0.982456	-0.014975
-0.93246	0.0240501
-0.99249	-0.0142675
-0.942509	0.0182553
-1.00244	-0.0153344
-0.952485	0.018727
-1.01253	-0.016244
-0.962504	0.0193222
-1.02249	-0.0172997
-0.972488	0.020434
-1.03246	-0.0155141
-0.98243	0.0181879
-1.0425	-0.0187708
-0.992547	0.0190077
-1.05246	-0.0190965
-1.00251	0.0189853
-1.06246	-0.0173334
-1.01247	0.0193222
-1.07248	-0.0217918
-1.02255	0.019412
-1.08248	-0.0187708
-1.03248	0.0186259
-1.09243	-0.0203206
-1.0425	0.0232078
-1.10245	-0.0150649
-1.05249	0.0194682
-1.11242	-0.0259357
-1.06247	0.0237132
-1.12246	-0.0208597
-1.0725	0.0253303

File: CoPc_CNT_VFSWV_scans_60_59_C02.txt
Ewe/V	<I>/mA
-0.122595	0.0153196
-0.0726261	0.0320005
-0.132595	0.0272913
-0.0826176	0.0273973
-0.142575	0.0236003
-0.0926283	0.0306641
-0.152589	0.0228578
-0.102627	0.0315762
-0.162638	0.0221366
-0.112604	0.0315762
-0.172561	0.0240139
-0.122618	0.0279277
-0.182564	0.0191456
-0.13261	0.0259337
-0.192567	0.0232821
-0.142571	0.0260715
-0.202562	0.0232078
-0.152578	0.0284155
-0.21252	0.0196759
-0.162577	0.0295716
-0.222565	0.019082
-0.172565	0.0299747
-0.232511	0.0204502
-0.182537	0.0259231
-0.242537	0.0262094
-0.192567	0.0262625
-0.252532	0.0177774
-0.202509	0.0258064
-0.262531	0.0157834
-0.212588	0.0236851
-0.272519	0.0169819
-0.222584	0.0287019
-0.282549	0.0147652
-0.232553	0.0263155
-0.29254	0.0162501
-0.242548	0.0241624
-0.302532	0.0170561
-0.252513	0.0234412
-0.31252	0.0155076
-0.262562	0.0177456
-0.322496	0.0127182
-0.272507	0.0248094
-0.332488	0.0116999
-0.28253	0.019432
-0.342533	0.0157728
-0.292514	0.0203017
-0.352482	0.0119969
-0.302547	0.021776
-0.362523	0.00799833
-0.312497	0.0196653
-0.372507	0.0124106
-0.322523	0.021182
-0.382453	0.00914381
-0.332572	0.0266761
-0.392448	0.0096211
-0.342525	0.0246715
-0.402452	0.0111696
-0.352513	0.0274822
-0.412478	0.0112227
-0.362489	0.0289565
-0.422477	0.0128348
-0.372511	0.0263579
-0.432445	0.0108726
-0.382476	0.0230063
-0.44246	0.00629071
-0.392513	0.0215108
-0.452551	0.00876199
-0.402478	0.0210441
-0.462561	0.00214363
-0.412478	0.0239609
-0.472545	0.00239818
-0.422446	0.0229427
-0.482564	0.000870865
-0.432499	0.0251064
-0.492517	8.59954e-05
-0.442441	0.024417
-0.502566	-0.00204588
-0.452566	0.0251488
-0.512535	-0.00739148
-0.462539	0.0237063
-0.522515	-0.0077627
-0.472568	0.0266655
-0.532541	-0.00958699
-0.482549	0.0282458
-0.542578	-0.0118143
-0.492525	0.0249154
-0.552516	-0.0127371
-0.502551	0.0267185
-0.562527	-0.0158872
-0.512519	0.0291792
-0.572549	-0.0166402
-0.522542	0.0305686
-0.582533	-0.0198433
-0.532556	0.0284049
-0.592506	-0.0197267
-0.542536	0.0298262
-0.602505	-0.0195782
-0.552516	0.0387037
-0.612493	-0.0157281
-0.562455	0.0389583
-0.622488	-0.025295
-0.572541	0.0303671
-0.632487	-0.0244677
-0.582464	0.0303883
-0.64249	-0.0245525
-0.592536	0.0303353
-0.652489	-0.024054
-0.602486	0.029455
-0.662492	-0.0253904
-0.612512	0.0310883
-0.672488	-0.0265359
-0.62253	0.0294868
-0.68246	-0.0254329
-0.632468	0.0253291
-0.692471	-0.025592
-0.642498	0.0294125
-0.702474	-0.0241813
-0.652467	0.0312368
-0.712496	-0.0245207
-0.662473	0.0260821
-0.722457	-0.023004
-0.672541	0.0263049
-0.732533	-0.0237359
-0.682525	0.0254776
-0.742467	-0.0263768
-0.692502	0.0264958
-0.752459	-0.0289648
-0.702512	0.0214047
-0.762458	-0.0266632
-0.712458	0.0252761
-0.772427	-0.0267693
-0.722465	0.0258594
-0.782426	-0.0271193
-0.732468	0.0213199
-0.792425	-0.0268435
-0.742429	0.0281186
-0.802424	-0.0293784
-0.75247	0.0252973
-0.812412	-0.0288163
-0.762443	0.0260821
-0.822434	-0.0285299
-0.772461	0.0235366
-0.832422	-0.0259844
-0.782483	0.0253821
-0.842433	-0.0288587
-0.79249	0.0193577
-0.85252	-0.0274057
-0.802413	0.019432
-0.862572	-0.0287208
-0.812428	0.0220836
-0.872545	-0.0241071
-0.822438	0.0198138
-0.882518	-0.0200661
-0.832418	0.0193789
-0.892521	-0.0217949
-0.842425	0.0198774
-0.90252	-0.0197161
-0.852577	0.0170668
-0.91258	-0.0205964
-0.862511	0.017088
-0.922568	-0.0194933
-0.872518	0.0193789
-0.932517	-0.0131613
-0.882502	0.0166319
-0.942505	-0.0202676
-0.892494	0.0182122
-0.952543	-0.0141689
-0.902527	0.0168122
-0.962492	-0.020013
-0.912576	0.0185835
-0.972503	-0.0162796
-0.92253	0.0132697
-0.98251	-0.0174993
-0.932525	0.0132909
-0.992566	-0.0184221
-0.942486	0.0116363
-1.00249	-0.0215191
-0.952466	0.0137364
-1.01253	-0.0204267
-0.962538	0.0136197
-1.02245	-0.0215828
-0.972526	0.0169289
-1.0325	-0.022654
-0.982514	0.0130469
-1.04248	-0.0195888
-0.992517	0.0175016
-1.05253	-0.0225373
-1.00248	0.0146485
-1.06247	-0.0205327
-1.0125	0.01345
-1.0725	-0.0245844
-1.02248	0.0132697
-1.0825	-0.0218904
-1.03249	0.0215851
-1.09249	-0.0200661
-1.04249	0.0179365
-1.10249	-0.0225267
-1.05247	0.0149985
-1.11243	-0.0241495
-1.06241	0.0153061
-1.1225	-0.0242874
-1.07248	0.0165683