Folder: ElectrochemLabUtils/VFSWV_data_prep/Example_data/CoPc_VFSWV_txt_data (part 4)

File: CoPc_CNT_VFSWV_scans_19_18_C02.txt
Ewe/V	<I>/mA
-0.121876	-0.0206104
-0.0719178	0.121465
-0.131875	-0.0904498
-0.081917	0.108737
-0.141928	-0.0926135
-0.0919506	0.100719
-0.151851	-0.100123
-0.101965	0.100846
-0.162041	-0.10305
-0.111968	0.108356
-0.172006	-0.105977
-0.121964	0.101864
-0.181917	-0.107887
-0.131875	0.102374
-0.19205	-0.114123
-0.141905	0.105683
-0.202091	-0.123414
-0.152003	0.103519
-0.212022	-0.124305
-0.161964	0.111028
-0.22196	-0.121887
-0.171899	0.111919
-0.232024	-0.126851
-0.18202	0.108228
-0.242023	-0.142888
-0.192042	0.106065
-0.251973	-0.137287
-0.202022	0.118538
-0.261976	-0.149506
-0.211972	0.112683
-0.271998	-0.155997
-0.221979	0.118538
-0.281951	-0.167834
-0.232077	0.120829
-0.291969	-0.166434
-0.24205	0.122738
-0.302049	-0.180307
-0.251976	0.127702
-0.311987	-0.18387
-0.261995	0.132793
-0.32194	-0.197998
-0.272021	0.136102
-0.331928	-0.211108
-0.28194	0.138647
-0.341931	-0.231217
-0.291924	0.148829
-0.352014	-0.253618
-0.301953	0.15112
-0.361941	-0.283528
-0.31201	0.159266
-0.371933	-0.325911
-0.321952	0.168939
-0.382046	-0.380003
-0.33189	0.199485
-0.392034	-0.441096
-0.341977	0.217304
-0.401923	-0.534389
-0.351888	0.253323
-0.411979	-0.65021
-0.361953	0.304234
-0.421967	-0.800014
-0.371956	0.377545
-0.431932	-0.990165
-0.38197	0.476565
-0.441874	-1.22143
-0.391904	0.610333
-0.451995	-1.49532
-0.401919	0.797938
-0.461807	-1.80524
-0.411975	1.0222
-0.471975	-2.13641
-0.421906	1.28719
-0.481924	-2.4961
-0.431982	1.57559
-0.491889	-2.85158
-0.44195	1.86286
-0.501934	-3.20375
-0.451911	2.13179
-0.511888	-3.54332
-0.461899	2.3698
-0.521921	-3.84802
-0.471872	2.56669
-0.531882	-4.12714
-0.481955	2.72184
-0.541889	-4.35115
-0.491885	2.83919
-0.551842	-4.53646
-0.501984	2.92752
-0.561853	-4.6729
-0.511865	2.9736
-0.572101	-4.76861
-0.521936	3.00223
-0.581897	-4.78299
-0.531909	2.99625
-0.591973	-4.74863
-0.54182	2.96749
-0.60193	-4.6533
-0.551915	2.91938
-0.612002	-4.48937
-0.5618	2.8327
-0.622009	-4.27122
-0.572036	2.71752
-0.632042	-3.99554
-0.581936	2.58515
-0.642007	-3.69096
-0.592034	2.42274
-0.651987	-3.36425
-0.601965	2.24939
-0.661903	-3.03244
-0.611952	2.05504
-0.671982	-2.72685
-0.621994	1.86108
-0.682012	-2.4336
-0.632039	1.66443
-0.692038	-2.19012
-0.64195	1.47505
-0.701922	-1.98992
-0.651968	1.31252
-0.711987	-1.8251
-0.661994	1.1524
-0.721967	-1.69133
-0.671944	1.02665
-0.731928	-1.59269
-0.681947	0.919996
-0.741931	-1.52511
-0.691977	0.837775
-0.751903	-1.47178
-0.702014	0.769555
-0.762063	-1.43869
-0.711941	0.712535
-0.771894	-1.41234
-0.721932	0.671043
-0.781916	-1.40547
-0.731958	0.644315
-0.791927	-1.38701
-0.741912	0.618224
-0.801957	-1.37543
-0.751865	0.605496
-0.811902	-1.37263
-0.761864	0.578514
-0.821925	-1.36067
-0.771837	0.571132
-0.831867	-1.34488
-0.782031	0.559549
-0.841904	-1.33343
-0.791957	0.551149
-0.852052	-1.31586
-0.801888	0.53524
-0.861914	-1.29512
-0.811876	0.521876
-0.871902	-1.27221
-0.821974	0.495657
-0.881954	-1.23988
-0.831981	0.48382
-0.891912	-1.21519
-0.84195	0.464601
-0.901976	-1.18464
-0.85193	0.450474
-0.911876	-1.15104
-0.862013	0.431128
-0.921879	-1.1135
-0.871925	0.413691
-0.931924	-1.09415
-0.881931	0.401982
-0.9419	-1.07353
-0.891969	0.396636
-0.951888	-1.05609
-0.901899	0.377799
-0.961834	-1.03764
-0.911963	0.376908
-0.971974	-1.03026
-0.921921	0.377672
-0.98195	-1.02415
-0.931828	0.383908
-0.99203	-1.01371
-0.94195	0.383399
-1.00198	-1.02135
-0.951976	0.394345
-1.01189	-1.01511
-0.961956	0.396509
-1.02199	-1.02097
-0.971814	0.409236
-1.032	-1.0314
-0.982034	0.4114
-1.04204	-1.03344
-0.991965	0.421709
-1.05195	-1.04108
-1.00198	0.430237
-1.06194	-1.06106
-1.01191	0.439274
-1.07198	-1.07837
-1.02194	0.442583
-1.08194	-1.09924
-1.032	0.459256
-1.09191	-1.12788
-1.042	0.466892
-1.10211	-1.14786
-1.05197	0.48102
-1.11194	-1.18642
-1.06206	0.496039
-1.12196	-1.21417
-1.07194	0.511566

File: CoPc_CNT_VFSWV_scans_20_19_C02.txt
Ewe/V	<I>/mA
-0.122368	-0.0240851
-0.0723447	0.115706
-0.132329	-0.0682401
-0.0823096	0.111792
-0.142332	-0.0822723
-0.0923126	0.100337
-0.152274	-0.0876179
-0.102312	0.0992871
-0.162395	-0.0894316
-0.112334	0.0982371
-0.172421	-0.100695
-0.122329	0.104442
-0.182359	-0.0985
-0.13234	0.102151
-0.192419	-0.102509
-0.142328	0.0965189
-0.202346	-0.108332
-0.152495	0.102342
-0.212364	-0.114632
-0.162437	0.102724
-0.22236	-0.122173
-0.172398	0.109787
-0.232374	-0.121792
-0.182409	0.108165
-0.242358	-0.125228
-0.192385	0.114942
-0.252361	-0.131433
-0.202396	0.111124
-0.262326	-0.136396
-0.212418	0.11141
-0.272379	-0.143365
-0.222429	0.112269
-0.282325	-0.149665
-0.232386	0.113606
-0.292354	-0.159688
-0.242354	0.122197
-0.302327	-0.164652
-0.252338	0.116279
-0.312334	-0.182884
-0.262383	0.118188
-0.322406	-0.189566
-0.272314	0.124965
-0.332367	-0.20083
-0.282336	0.130406
-0.342331	-0.220208
-0.292328	0.137184
-0.352323	-0.245886
-0.302361	0.14167
-0.362345	-0.271946
-0.312399	0.151216
-0.372379	-0.310128
-0.322325	0.15723
-0.382317	-0.355948
-0.332348	0.183194
-0.392358	-0.420954
-0.342324	0.205435
-0.40235	-0.500947
-0.352365	0.239991
-0.412349	-0.624087
-0.362345	0.281801
-0.422356	-0.757154
-0.372409	0.353299
-0.432313	-0.952077
-0.382313	0.442265
-0.442308	-1.17258
-0.392335	0.572182
-0.452331	-1.43414
-0.402338	0.7567
-0.46233	-1.74208
-0.41233	0.97587
-0.472337	-2.06501
-0.422318	1.24086
-0.482279	-2.4246
-0.43237	1.52962
-0.492289	-2.77789
-0.442316	1.82028
-0.502323	-3.12544
-0.4523	2.09176
-0.512337	-3.4626
-0.462364	2.32878
-0.522302	-3.77121
-0.472291	2.5343
-0.532343	-4.04956
-0.482366	2.69878
-0.542285	-4.27265
-0.492324	2.82268
-0.552323	-4.45402
-0.502319	2.91785
-0.562284	-4.59004
-0.512292	2.96959
-0.572409	-4.68913
-0.522276	2.9987
-0.582397	-4.70421
-0.532305	2.9988
-0.592388	-4.66784
-0.542339	2.9671
-0.60243	-4.55787
-0.5523	2.91479
-0.612379	-4.39579
-0.562269	2.82363
-0.622348	-4.17776
-0.572455	2.70431
-0.632393	-3.90218
-0.582393	2.57105
-0.642404	-3.59691
-0.592365	2.39961
-0.652342	-3.26768
-0.602399	2.21872
-0.662349	-2.93997
-0.612372	2.01702
-0.672356	-2.63184
-0.622321	1.81494
-0.682385	-2.3531
-0.632351	1.6266
-0.692392	-2.10835
-0.642369	1.43521
-0.70233	-1.91056
-0.652346	1.27169
-0.712383	-1.75086
-0.662349	1.12306
-0.722401	-1.62305
-0.672386	0.998111
-0.732324	-1.53246
-0.682339	0.894922
-0.742369	-1.47175
-0.69235	0.811874
-0.752342	-1.4097
-0.70233	0.75145
-0.762341	-1.38603
-0.712375	0.695321
-0.772332	-1.35281
-0.72239	0.65437
-0.782347	-1.34527
-0.732294	0.62726
-0.79235	-1.33161
-0.742342	0.603301
-0.802353	-1.32493
-0.752334	0.580582
-0.812295	-1.31434
-0.76228	0.565977
-0.822325	-1.31367
-0.772287	0.554904
-0.83232	-1.29639
-0.782343	0.543354
-0.842308	-1.29477
-0.792308	0.527317
-0.85228	-1.26642
-0.802284	0.51548
-0.862345	-1.24819
-0.812337	0.496866
-0.872306	-1.22461
-0.822348	0.485507
-0.882293	-1.1891
-0.832335	0.473002
-0.892319	-1.17086
-0.842327	0.456392
-0.902296	-1.13545
-0.852311	0.431573
-0.912261	-1.10319
-0.862322	0.422314
-0.922279	-1.07035
-0.872336	0.408568
-0.93229	-1.04534
-0.882309	0.397018
-0.942369	-1.02014
-0.892239	0.379358
-0.952284	-1.00467
-0.902315	0.365517
-0.962345	-0.995797
-0.912264	0.365612
-0.972294	-0.984056
-0.922382	0.363512
-0.98237	-0.977851
-0.932293	0.36714
-0.992449	-0.971742
-0.942266	0.369526
-1.00235	-0.975464
-0.952246	0.375922
-1.01236	-0.970501
-0.962272	0.377449
-1.02236	-0.977183
-0.972275	0.387663
-1.03238	-0.981383
-0.982389	0.38709
-1.04242	-0.992647
-0.992361	0.398354
-1.05237	-1.00821
-1.00239	0.416205
-1.06242	-1.01642
-1.01232	0.413627
-1.07241	-1.03551
-1.02233	0.42871
-1.08237	-1.05517
-1.03237	0.434914
-1.09237	-1.07016
-1.04238	0.443983
-1.10234	-1.1091
-1.05237	0.452956
-1.11233	-1.12925
-1.06235	0.480352
-1.12232	-1.16476
-1.07238	0.491711

File: CoPc_CNT_VFSWV_scans_21_20_C02.txt
Ewe/V	<I>/mA
-0.122356	-0.010072
-0.0723295	0.105205
-0.132378	-0.061749
-0.0823172	0.110837
-0.142328	-0.06404
-0.0923088	0.0945143
-0.152346	-0.0732993
-0.102354	0.092987
-0.162384	-0.0778812
-0.112357	0.087355
-0.172413	-0.0780722
-0.122303	0.0859231
-0.182401	-0.0892406
-0.132298	0.0927006
-0.192381	-0.0868542
-0.142324	0.0960416
-0.202388	-0.0870451
-0.152411	0.0887869
-0.212399	-0.101077
-0.162387	0.0944188
-0.222406	-0.0973545
-0.172406	0.103678
-0.232435	-0.104896
-0.182367	0.101101
-0.242377	-0.101364
-0.192389	0.095087
-0.252369	-0.112055
-0.2024	0.0990962
-0.262387	-0.118832
-0.212376	0.10196
-0.272352	-0.124369
-0.222383	0.104442
-0.282336	-0.132292
-0.232416	0.103583
-0.292343	-0.138974
-0.242393	0.100433
-0.302403	-0.144988
-0.252365	0.112747
-0.312357	-0.154533
-0.262349	0.10301
-0.322383	-0.163315
-0.27239	0.118856
-0.332332	-0.176107
-0.282405	0.117997
-0.342331	-0.191666
-0.292381	0.125061
-0.352331	-0.207512
-0.302312	0.131265
-0.362368	-0.237772
-0.312338	0.13852
-0.372352	-0.263927
-0.322379	0.143675
-0.382328	-0.30316
-0.332374	0.163148
-0.392354	-0.364253
-0.342316	0.180903
-0.402342	-0.437945
-0.352354	0.210686
-0.412334	-0.547053
-0.362349	0.250873
-0.422348	-0.67277
-0.372341	0.301752
-0.432347	-0.84612
-0.382344	0.396541
-0.442331	-1.05679
-0.392316	0.505457
-0.452334	-1.3088
-0.402334	0.667066
-0.462303	-1.59689
-0.412341	0.87039
-0.472333	-1.91772
-0.422363	1.13061
-0.482271	-2.25077
-0.43234	1.40714
-0.492297	-2.60148
-0.442312	1.69294
-0.502319	-2.94293
-0.452304	1.96776
-0.512299	-3.27665
-0.462337	2.21805
-0.522256	-3.57915
-0.472279	2.42844
-0.532294	-3.84767
-0.482286	2.59167
-0.542312	-4.08345
-0.492274	2.73314
-0.552269	-4.26081
-0.502315	2.81705
-0.562337	-4.39531
-0.512284	2.89036
-0.572363	-4.48103
-0.522314	2.91699
-0.582382	-4.49945
-0.532279	2.91833
-0.59243	-4.45201
-0.542324	2.88387
-0.602395	-4.34873
-0.552288	2.82755
-0.612352	-4.17643
-0.562261	2.74536
-0.622359	-3.95248
-0.572367	2.61506
-0.632378	-3.67432
-0.582378	2.48085
-0.642339	-3.37401
-0.592346	2.30731
-0.652361	-3.0444
-0.602399	2.11706
-0.662364	-2.73512
-0.612383	1.91965
-0.672333	-2.43099
-0.622398	1.71442
-0.682343	-2.16381
-0.632393	1.52103
-0.692362	-1.92927
-0.642316	1.33603
-0.702334	-1.74905
-0.652323	1.18063
-0.712345	-1.60395
-0.662368	1.03601
-0.722344	-1.48807
-0.672367	0.918977
-0.732313	-1.40846
-0.682359	0.824379
-0.742312	-1.35166
-0.692365	0.748395
-0.752307	-1.30135
-0.702296	0.689785
-0.762349	-1.27625
-0.712333	0.63442
-0.772317	-1.25095
-0.722344	0.60416
-0.78232	-1.23759
-0.732328	0.574568
-0.792312	-1.22881
-0.742331	0.55729
-0.802342	-1.21926
-0.752315	0.539822
-0.812333	-1.21163
-0.762318	0.525121
-0.822352	-1.20475
-0.772375	0.513953
-0.832343	-1.19454
-0.782355	0.50813
-0.842285	-1.18318
-0.792278	0.478252
-0.852323	-1.16619
-0.802326	0.475102
-0.862329	-1.15006
-0.812307	0.46527
-0.872313	-1.12218
-0.822348	0.451428
-0.882297	-1.09984
-0.832309	0.42976
-0.892308	-1.06624
-0.842304	0.415346
-0.90225	-1.04057
-0.852265	0.401027
-0.912326	-1.01613
-0.862318	0.386136
-0.922306	-0.981192
-0.872302	0.366376
-0.932301	-0.958568
-0.882313	0.351867
-0.942323	-0.935563
-0.892319	0.344516
-0.952261	-0.915804
-0.902273	0.340316
-0.962325	-0.906831
-0.912287	0.327334
-0.972317	-0.893658
-0.922302	0.323802
-0.982377	-0.895567
-0.932278	0.332584
-0.992392	-0.878385
-0.942323	0.332489
-1.00236	-0.881057
-0.952299	0.333348
-1.01237	-0.884494
-0.962314	0.344516
-1.02239	-0.88583
-0.972252	0.352058
-1.03243	-0.88793
-0.982412	0.352058
-1.04238	-0.899481
-0.992392	0.35769
-1.05233	-0.909026
-1.00236	0.380695
-1.06232	-0.925445
-1.01238	0.373058
-1.07234	-0.942245
-1.02233	0.38709
-1.08237	-0.9621
-1.03242	0.395681
-1.09238	-0.984342
-1.04236	0.405227
-1.10241	-1.00649
-1.05235	0.411241
-1.11232	-1.03646
-1.06237	0.4247
-1.12242	-1.06768
-1.07234	0.439687

File: CoPc_CNT_VFSWV_scans_22_21_C02.txt
Ewe/V	<I>/mA
-0.122284	-0.0107592
-0.0723371	0.0949916
-0.132287	-0.0509623
-0.0823134	0.0818185
-0.142335	-0.0587898
-0.0923127	0.086305
-0.152316	-0.0638491
-0.102369	0.0759956
-0.16241	-0.076163
-0.112303	0.0778093
-0.17236	-0.0725356
-0.122329	0.0811503
-0.182371	-0.0789313
-0.132294	0.0822003
-0.192362	-0.0763539
-0.142358	0.0832503
-0.202396	-0.0830359
-0.152422	0.0777138
-0.212395	-0.0831314
-0.162426	0.0864004
-0.222421	-0.0944908
-0.172409	0.0845867
-0.232378	-0.0994546
-0.182447	0.0855413
-0.242389	-0.0980227
-0.192354	0.0835367
-0.252419	-0.11005
-0.202381	0.0844913
-0.262361	-0.114823
-0.212349	0.090696
-0.272387	-0.110909
-0.222402	0.0834413
-0.282351	-0.126278
-0.232378	0.0897414
-0.292377	-0.127042
-0.242423	0.0926051
-0.302411	-0.137924
-0.252396	0.0859231
-0.312349	-0.147469
-0.262387	0.0957552
-0.322379	-0.155201
-0.272329	0.0983326
-0.33237	-0.159783
-0.282374	0.0960416
-0.342343	-0.178016
-0.292408	0.0983326
-0.352342	-0.197489
-0.302365	0.108069
-0.362395	-0.211426
-0.31238	0.109215
-0.372337	-0.239586
-0.322398	0.128402
-0.382355	-0.283591
-0.332351	0.134129
-0.392381	-0.33027
-0.342331	0.15217
-0.402331	-0.403581
-0.352384	0.173266
-0.412284	-0.495602
-0.362315	0.211545
-0.422314	-0.607668
-0.372352	0.263473
-0.432382	-0.768895
-0.38234	0.337644
-0.442293	-0.961528
-0.392312	0.439878
-0.452327	-1.20485
-0.402338	0.584018
-0.462349	-1.47356
-0.412322	0.770828
-0.472367	-1.77998
-0.422341	1.00365
-0.482336	-2.11341
-0.432248	1.27704
-0.492282	-2.45066
-0.442289	1.55606
-0.502273	-2.78657
-0.452311	1.8368
-0.512353	-3.1138
-0.462349	2.08995
-0.522272	-3.41143
-0.472344	2.31351
-0.532317	-3.67623
-0.48229	2.49459
-0.54227	-3.90151
-0.492312	2.62145
-0.552281	-4.07772
-0.50233	2.73075
-0.562295	-4.21261
-0.512295	2.79366
-0.572363	-4.29365
-0.522291	2.83251
-0.582397	-4.30701
-0.532332	2.82001
-0.592396	-4.26482
-0.542304	2.79414
-0.602372	-4.14855
-0.552311	2.73591
-0.612395	-3.97587
-0.562295	2.64599
-0.622386	-3.74716
-0.572398	2.5301
-0.632374	-3.4751
-0.582347	2.37928
-0.642392	-3.18062
-0.592377	2.1961
-0.652372	-2.8596
-0.602372	2.01903
-0.662375	-2.54955
-0.612368	1.81599
-0.672394	-2.25497
-0.622394	1.6076
-0.682427	-2.00287
-0.632351	1.42557
-0.692426	-1.78485
-0.642362	1.25756
-0.70238	-1.6177
-0.652334	1.08641
-0.712387	-1.47728
-0.662383	0.951433
-0.722333	-1.37839
-0.672336	0.843089
-0.732316	-1.30746
-0.682378	0.754982
-0.742285	-1.24504
-0.692369	0.683389
-0.752353	-1.20638
-0.702326	0.622106
-0.762318	-1.17831
-0.71236	0.584114
-0.772321	-1.16561
-0.722333	0.555954
-0.782271	-1.14929
-0.732332	0.526649
-0.792289	-1.13984
-0.742251	0.510039
-0.802281	-1.14261
-0.752334	0.493334
-0.812326	-1.13154
-0.762307	0.477775
-0.822268	-1.12275
-0.772352	0.469374
-0.832343	-1.11875
-0.782316	0.459256
-0.842342	-1.10233
-0.792308	0.444365
-0.852296	-1.0945
-0.80233	0.435583
-0.862299	-1.06643
-0.812371	0.416968
-0.872267	-1.04677
-0.822317	0.40265
-0.88232	-1.02357
-0.832286	0.390431
-0.892331	-0.992647
-0.842316	0.378499
-0.9023	-0.960669
-0.852303	0.35769
-0.912295	-0.936613
-0.862295	0.346712
-0.922283	-0.909026
-0.872237	0.331343
-0.932232	-0.887548
-0.882221	0.315402
-0.94227	-0.864734
-0.892289	0.299747
-0.952254	-0.852993
-0.902296	0.304615
-0.962295	-0.833329
-0.912257	0.291538
-0.972313	-0.823688
-0.922264	0.297838
-0.982396	-0.823497
-0.932271	0.291729
-0.9924	-0.817578
-0.942277	0.289151
-1.00236	-0.813855
-0.952277	0.295165
-1.01238	-0.812328
-0.962226	0.308434
-1.02237	-0.817387
-0.972256	0.30977
-1.03239	-0.82006
-0.98229	0.320366
-1.04237	-0.823783
-0.992399	0.318648
-1.05239	-0.839247
-1.00233	0.332202
-1.06236	-0.85032
-1.01241	0.339457
-1.07232	-0.874662
-1.02233	0.342989
-1.08235	-0.882776
-1.03237	0.348621
-1.09235	-0.902249
-1.04234	0.364849
-1.10235	-0.9285
-1.05238	0.373154
-1.11233	-0.954559
-1.06232	0.385181
-1.12233	-0.986346
-1.07232	0.394918

File: CoPc_CNT_VFSWV_scans_23_22_C02.txt
Ewe/V	<I>/mA
-0.122364	-0.0280561
-0.0723447	0.0824867
-0.132279	-0.0471441
-0.0823516	0.0764729
-0.14229	-0.0581216
-0.0923355	0.0727501
-0.152293	-0.0654718
-0.102381	0.068359
-0.162391	-0.0671901
-0.112269	0.0720819
-0.17239	-0.0701492
-0.122341	0.0713182
-0.182394	-0.0743493
-0.132287	0.0670226
-0.192393	-0.0739675
-0.142305	0.0677863
-0.202361	-0.0791222
-0.152453	0.066259
-0.21238	-0.0877133
-0.162441	0.0715091
-0.222406	-0.0873315
-0.172421	0.0819139
-0.232386	-0.0921998
-0.182401	0.0635862
-0.242416	-0.090577
-0.192347	0.0713182
-0.252342	-0.0986909
-0.202377	0.0822958
-0.26238	-0.0923907
-0.212376	0.0836322
-0.272409	-0.09745
-0.222394	0.0814367
-0.282374	-0.108046
-0.23234	0.0757092
-0.29237	-0.112341
-0.242393	0.0901233
-0.302392	-0.108046
-0.252396	0.0841095
-0.312368	-0.117305
-0.262383	0.0882141
-0.322344	-0.131624
-0.272341	0.0867823
-0.332328	-0.148806
-0.282374	0.092987
-0.342385	-0.154247
-0.292381	0.100242
-0.352369	-0.171047
-0.302338	0.0916506
-0.362334	-0.191952
-0.312364	0.108069
-0.37239	-0.210376
-0.322413	0.115133
-0.382309	-0.241781
-0.33234	0.116469
-0.392335	-0.296096
-0.342324	0.13327
-0.402354	-0.349075
-0.352342	0.146061
-0.412318	-0.438614
-0.362303	0.187012
-0.422348	-0.542853
-0.372329	0.228441
-0.432359	-0.697016
-0.382332	0.293829
-0.442316	-0.874853
-0.392331	0.386518
-0.452319	-1.09202
-0.402361	0.51968
-0.462322	-1.36121
-0.41228	0.688926
-0.472306	-1.65531
-0.422333	0.913823
-0.482282	-1.96469
-0.432294	1.17022
-0.492282	-2.30461
-0.442301	1.44638
-0.502308	-2.63069
-0.452315	1.7191
-0.512292	-2.95372
-0.462272	1.97893
-0.522245	-3.24267
-0.472337	2.20116
-0.532301	-3.5089
-0.482313	2.3789
-0.542316	-3.7315
-0.492247	2.5343
-0.552262	-3.91392
-0.502304	2.63463
-0.562257	-4.03639
-0.51228	2.70469
-0.572363	-4.12001
-0.52226	2.7508
-0.582351	-4.12431
-0.532252	2.74431
-0.592335	-4.07591
-0.542243	2.71615
-0.602418	-3.96251
-0.552292	2.65525
-0.612326	-3.78887
-0.56223	2.5637
-0.622451	-3.56751
-0.572356	2.43064
-0.632378	-3.28906
-0.582362	2.27972
-0.64235	-2.98999
-0.592411	2.10818
-0.652346	-2.6746
-0.602399	1.91717
-0.662406	-2.37907
-0.612379	1.71671
-0.67239	-2.09269
-0.622424	1.5153
-0.682359	-1.85501
-0.632397	1.33107
-0.692339	-1.65655
-0.642396	1.15953
-0.702361	-1.49494
-0.65238	1.01787
-0.712322	-1.37133
-0.662303	0.88824
-0.722317	-1.28064
-0.672344	0.775792
-0.732332	-1.20848
-0.682389	0.697994
-0.742297	-1.15559
-0.692327	0.619337
-0.752296	-1.12982
-0.702334	0.575045
-0.762318	-1.10968
-0.712284	0.53524
-0.772344	-1.08868
-0.722321	0.497057
-0.782339	-1.07608
-0.73232	0.482357
-0.79232	-1.06443
-0.742327	0.460974
-0.802296	-1.06166
-0.752368	0.443028
-0.812333	-1.05651
-0.76231	0.436728
-0.822302	-1.05154
-0.772313	0.423269
-0.832328	-1.04563
-0.782301	0.409427
-0.842319	-1.03274
-0.792297	0.407327
-0.852311	-1.01327
-0.8023	0.39845
-0.862318	-0.994842
-0.812272	0.386613
-0.872329	-0.981383
-0.822321	0.372294
-0.882309	-0.959809
-0.83232	0.352153
-0.892251	-0.928118
-0.842316	0.340507
-0.902265	-0.894135
-0.852303	0.327334
-0.912306	-0.874662
-0.86231	0.308625
-0.922275	-0.85242
-0.872294	0.294211
-0.932278	-0.829988
-0.882309	0.283042
-0.942308	-0.805169
-0.8923	0.278556
-0.952303	-0.788559
-0.902322	0.264523
-0.96228	-0.774241
-0.912261	0.261087
-0.972256	-0.76355
-0.922313	0.248868
-0.982435	-0.759254
-0.932244	0.260514
-0.992361	-0.760209
-0.942289	0.259846
-1.00231	-0.754958
-0.952277	0.264428
-1.01242	-0.754195
-0.96228	0.271492
-1.02233	-0.764695
-0.972313	0.273019
-1.03235	-0.7646
-0.982335	0.279128
-1.04246	-0.77825
-0.992403	0.283519
-1.05238	-0.780064
-1.00241	0.285524
-1.06235	-0.794478
-1.01234	0.287147
-1.07234	-0.804501
-1.02236	0.300702
-1.08243	-0.822828
-1.03237	0.312347
-1.09232	-0.843161
-1.04238	0.318648
-1.10233	-0.872753
-1.05239	0.325234
-1.11232	-0.894517
-1.06237	0.341557
-1.12235	-0.913704
-1.07234	0.345853

File: CoPc_CNT_VFSWV_scans_24_23_C02.txt
Ewe/V	<I>/mA
-0.122287	-0.0143866
-0.0723295	0.0759956
-0.132298	-0.0398893
-0.0823554	0.0674045
-0.14229	-0.0509623
-0.0922707	0.0758047
-0.152293	-0.0558307
-0.102293	0.0665454
-0.162376	-0.0549715
-0.1123	0.0531814
-0.17241	-0.0623217
-0.12231	0.0689318
-0.182359	-0.0721538
-0.132256	0.0611043
-0.192351	-0.0674764
-0.142305	0.066259
-0.202346	-0.0690037
-0.152377	0.0638726
-0.212383	-0.0790267
-0.162464	0.0646362
-0.222379	-0.0785494
-0.172356	0.0617725
-0.232328	-0.0771176
-0.182359	0.0614861
-0.242358	-0.0816995
-0.192374	0.0693136
-0.252365	-0.0886679
-0.202327	0.0660681
-0.262349	-0.0898134
-0.212414	0.0633953
-0.272329	-0.0970681
-0.222394	0.0688363
-0.282348	-0.10375
-0.232325	0.071891
-0.292316	-0.109096
-0.242347	0.062918
-0.302346	-0.112819
-0.252323	0.0727501
-0.312326	-0.110432
-0.26233	0.0726546
-0.322325	-0.132292
-0.272322	0.0724637
-0.332317	-0.128951
-0.282367	0.0839185
-0.342328	-0.144892
-0.292354	0.0843004
-0.352334	-0.157302
-0.302342	0.0781911
-0.362341	-0.175438
-0.312303	0.0964234
-0.372287	-0.191666
-0.32236	0.0937506
-0.382363	-0.227558
-0.332302	0.107496
-0.392282	-0.269559
-0.342366	0.115515
-0.402311	-0.317097
-0.352342	0.133652
-0.41236	-0.399094
-0.362303	0.163721
-0.422302	-0.496842
-0.372344	0.198658
-0.43229	-0.629051
-0.38234	0.254119
-0.442293	-0.798582
-0.392343	0.332393
-0.452319	-1.0188
-0.40227	0.453242
-0.462276	-1.25563
-0.41228	0.609505
-0.472276	-1.54067
-0.422318	0.825238
-0.482332	-1.8404
-0.432347	1.06589
-0.492312	-2.16753
-0.44227	1.33212
-0.502239	-2.48712
-0.452269	1.60636
-0.512292	-2.80824
-0.462334	1.85541
-0.522276	-3.09108
-0.472325	2.09119
-0.532275	-3.3575
-0.482244	2.27829
-0.542282	-3.58039
-0.49227	2.42004
-0.552269	-3.75804
-0.502292	2.53879
-0.562265	-3.87784
-0.512257	2.61363
-0.572367	-3.95726
-0.522245	2.64923
-0.582313	-3.95812
-0.532259	2.65563
-0.592354	-3.91316
-0.542312	2.61907
-0.602372	-3.79584
-0.552323	2.55568
-0.612333	-3.60798
-0.562276	2.46853
-0.622344	-3.38547
-0.572405	2.33403
-0.632362	-3.10769
-0.582294	2.17882
-0.642373	-2.81464
-0.592335	2.00852
-0.652338	-2.51299
-0.602418	1.81828
-0.662349	-2.21373
-0.61231	1.60913
-0.672378	-1.95285
-0.622375	1.42815
-0.682343	-1.72251
-0.632374	1.25126
-0.692312	-1.53055
-0.642346	1.07075
-0.702342	-1.38746
-0.652372	0.931291
-0.71233	-1.27043
-0.662314	0.815884
-0.722325	-1.18452
-0.67231	0.713745
-0.732297	-1.12743
-0.682332	0.628024
-0.742289	-1.08037
-0.692335	0.568841
-0.752303	-1.04935
-0.702326	0.519489
-0.762265	-1.03522
-0.71231	0.484266
-0.772241	-1.01966
-0.722306	0.452956
-0.782282	-1.00897
-0.732313	0.43501
-0.792232	-1.0083
-0.74232	0.4184
-0.802303	-0.997801
-0.752292	0.411909
-0.812261	-0.990833
-0.762238	0.399786
-0.822313	-0.991119
-0.772283	0.39215
-0.832347	-0.991119
-0.782313	0.376017
-0.842266	-0.97976
-0.792297	0.369717
-0.852338	-0.958664
-0.802311	0.358167
-0.86231	-0.941673
-0.81228	0.346044
-0.872351	-0.921531
-0.822248	0.339362
-0.882324	-0.892799
-0.832263	0.318743
-0.892285	-0.869412
-0.842266	0.309579
-0.90228	-0.844879
-0.852269	0.293256
-0.912249	-0.811183
-0.862284	0.268342
-0.922309	-0.79085
-0.87231	0.262805
-0.932263	-0.773764
-0.882244	0.256314
-0.942281	-0.750663
-0.892285	0.246291
-0.952212	-0.737299
-0.902235	0.236841
-0.962249	-0.723649
-0.912276	0.229204
-0.972283	-0.710666
-0.922313	0.227009
-0.982347	-0.708566
-0.932244	0.233118
-0.992361	-0.704843
-0.942289	0.227391
-1.00236	-0.693484
-0.952315	0.227295
-1.01234	-0.697875
-0.962245	0.234932
-1.02233	-0.70513
-0.97221	0.244477
-1.03229	-0.707898
-0.982343	0.248773
-1.04231	-0.71668
-0.992388	0.250682
-1.05234	-0.729567
-1.00233	0.256791
-1.06231	-0.735008
-1.01233	0.261373
-1.0723	-0.749899
-1.02235	0.268724
-1.08229	-0.768991
-1.03235	0.274165
-1.09233	-0.784455
-1.04234	0.291538
-1.10231	-0.799632
-1.05229	0.30032
-1.11229	-0.823019
-1.06229	0.30452
-1.12232	-0.847552
-1.07229	0.317502