Folder: ElectrochemLabUtils/VFSWV_data_prep/Example_data/CoPc_VFSWV_txt_data (part 8)

File: CoPc_CNT_VFSWV_scans_43_42_C02.txt
Ewe/V	<I>/mA
-0.122496	0.00699578
-0.0723738	0.028511
-0.132396	0.0032679
-0.0823883	0.0318202
-0.142479	0.00106178
-0.0923799	0.022232
-0.152413	-0.00559901
-0.102356	0.0259231
-0.162413	-0.00424139
-0.112306	0.0201108
-0.172439	-0.00305348
-0.122473	0.0258382
-0.1824	-0.00513233
-0.13248	0.0277049
-0.192422	-0.00398684
-0.142452	0.0275776
-0.20239	-0.000677661
-0.152463	0.0295716
-0.212466	0.000382973
-0.162462	0.0280019
-0.222454	-0.00305348
-0.172412	0.0281292
-0.232423	-0.00059281
-0.182472	0.0278746
-0.242395	-0.00360501
-0.192395	0.0226139
-0.252406	-0.0113689
-0.202394	0.0292747
-0.26239	-0.0149326
-0.212436	0.0186683
-0.272381	-0.0102234
-0.222446	0.022826
-0.282403	-0.0165872
-0.232438	0.0231654
-0.29241	-0.0130659
-0.242449	0.020832
-0.302398	-0.0149326
-0.252413	0.0220623
-0.312382	-0.0156962
-0.262439	0.0272382
-0.322393	-0.0153993
-0.272355	0.0249048
-0.33235	-0.0177327
-0.282411	0.0260928
-0.342395	-0.0251147
-0.292406	0.0183289
-0.352383	-0.0271511
-0.30239	0.022529
-0.36239	-0.0229934
-0.312443	0.0261776
-0.372438	-0.024351
-0.322397	0.0220199
-0.382361	-0.0296542
-0.332411	0.0254564
-0.392376	-0.0339392
-0.342372	0.0247351
-0.402367	-0.0369089
-0.352367	0.0200259
-0.41239	-0.0432727
-0.362374	0.0260503
-0.422358	-0.0452243
-0.372454	0.0294019
-0.432323	-0.0509517
-0.382361	0.0271534
-0.442349	-0.0540064
-0.392422	0.0295716
-0.452356	-0.0686007
-0.402406	0.0336869
-0.462347	-0.0843829
-0.412336	0.0336445
-0.472316	-0.102583
-0.422331	0.0365294
-0.482346	-0.130966
-0.432388	0.0476448
-0.492337	-0.168725
-0.442338	0.0595664
-0.502344	-0.215096
-0.452333	0.0746274
-0.51234	-0.268509
-0.46234	0.0992765
-0.522335	-0.32205
-0.472328	0.126556
-0.532399	-0.375591
-0.482384	0.172206
-0.542402	-0.425441
-0.492307	0.21794
-0.552451	-0.462605
-0.502337	0.269614
-0.562374	-0.48666
-0.512321	0.309367
-0.572423	-0.488103
-0.522358	0.342374
-0.582407	-0.470708
-0.532422	0.351241
-0.592387	-0.445932
-0.542429	0.362908
-0.602405	-0.396082
-0.552463	0.348017
-0.612401	-0.358748
-0.562389	0.32307
-0.622415	-0.317595
-0.572423	0.280603
-0.632411	-0.286794
-0.582399	0.250396
-0.642448	-0.259812
-0.592444	0.211619
-0.652386	-0.241993
-0.602386	0.182091
-0.662408	-0.227908
-0.612439	0.155617
-0.672339	-0.21849
-0.622415	0.129696
-0.682395	-0.210089
-0.632422	0.110477
-0.692402	-0.210514
-0.642398	0.101737
-0.702401	-0.203089
-0.652359	0.0901551
-0.712389	-0.20101
-0.662416	0.0862519
-0.722365	-0.19698
-0.672442	0.0804821
-0.732346	-0.200459
-0.682369	0.075391
-0.742364	-0.204871
-0.692387	0.0703424
-0.752382	-0.200798
-0.70239	0.0719122
-0.762336	-0.199398
-0.712366	0.0667363
-0.772327	-0.201732
-0.722385	0.0716152
-0.782346	-0.201265
-0.732399	0.0696212
-0.792372	-0.209198
-0.742314	0.0655484
-0.802317	-0.210174
-0.752367	0.0597785
-0.812362	-0.202453
-0.762366	0.0659726
-0.8223	-0.204319
-0.772346	0.057233
-0.832357	-0.200841
-0.782349	0.0615179
-0.842314	-0.197362
-0.792372	0.0568087
-0.852352	-0.196259
-0.802321	0.055239
-0.86237	-0.18404
-0.812313	0.0562148
-0.872316	-0.184889
-0.822304	0.0515904
-0.882342	-0.178949
-0.832288	0.052651
-0.892379	-0.175088
-0.842391	0.0433175
-0.90231	-0.16724
-0.852355	0.0405174
-0.912358	-0.160494
-0.862393	0.0369112
-0.922327	-0.152221
-0.8724	0.0377597
-0.932395	-0.146282
-0.882326	0.0351294
-0.942444	-0.145772
-0.892299	0.032796
-0.952462	-0.143015
-0.902268	0.0280867
-0.962439	-0.138306
-0.912305	0.027917
-0.972361	-0.141912
-0.922361	0.026517
-0.982372	-0.134445
-0.932441	0.0236321
-0.992402	-0.135378
-0.942448	0.0317353
-1.00242	-0.137542
-0.952405	0.0299535
-1.0124	-0.138136
-0.962416	0.0299959
-1.02241	-0.135463
-0.972415	0.0313535
-1.03238	-0.136821
-0.982364	0.0183713
-1.0424	-0.139366
-0.992394	0.0284261
-1.05243	-0.133978
-1.00244	0.0293171
-1.06235	-0.143312
-1.01242	0.0285959
-1.07238	-0.146451
-1.02239	0.0323293
-1.08244	-0.146791
-1.03243	0.032499
-1.09239	-0.149336
-1.04238	0.0323293
-1.10237	-0.15413
-1.0524	0.0319899
-1.11232	-0.159561
-1.0624	0.0361051
-1.1224	-0.165076
-1.07238	0.0323293

File: CoPc_CNT_VFSWV_scans_44_43_C02.txt
Ewe/V	<I>/mA
-0.122481	0.00833217
-0.0723738	0.0335936
-0.132453	0.00961474
-0.0823654	0.0360373
-0.142456	0.00843107
-0.0923608	0.0301189
-0.152463	0.0019018
-0.102341	0.03703
-0.162432	0.00602555
-0.112382	0.0308826
-0.172481	0.009462
-0.122488	0.0333645
-0.182438	0.00820197
-0.132453	0.0355791
-0.192441	0.00789651
-0.142468	0.0298135
-0.202463	0.00560554
-0.15249	0.0300044
-0.212386	0.00404004
-0.162413	0.033059
-0.222416	0.00442187
-0.172412	0.0317226
-0.23243	-0.00500929
-0.182461	0.0347009
-0.242479	-0.00539112
-0.192468	0.0324863
-0.252429	-0.000580083
-0.202413	0.031379
-0.262405	0.00285637
-0.212428	0.0321044
-0.272393	-0.00199285
-0.222469	0.0297371
-0.282384	-0.000847363
-0.232419	0.0348154
-0.292372	-0.00386381
-0.24246	0.0374118
-0.302421	-0.00951487
-0.252429	0.0316844
-0.312393	-0.00554385
-0.262424	0.0369536
-0.322431	-0.00955305
-0.272419	0.0340899
-0.33238	-0.00390199
-0.282407	0.033479
-0.342364	-0.00802574
-0.292399	0.0351972
-0.352367	-0.0110804
-0.302421	0.0323717
-0.362363	-0.0123786
-0.312344	0.0358463
-0.372404	-0.0173805
-0.322442	0.0344336
-0.38238	-0.0167314
-0.332331	0.0416501
-0.392364	-0.017686
-0.342399	0.0371827
-0.402379	-0.016006
-0.352386	0.0369918
-0.412397	-0.0197097
-0.362386	0.0326772
-0.422343	-0.0281481
-0.372412	0.0405428
-0.432342	-0.0337992
-0.382361	0.0393592
-0.442414	-0.0402139
-0.392376	0.0404665
-0.452341	-0.0468195
-0.402344	0.045583
-0.462386	-0.0618635
-0.412363	0.0461175
-0.472309	-0.0801913
-0.422328	0.0539832
-0.482376	-0.101612
-0.432296	0.0524177
-0.492326	-0.134105
-0.442387	0.0608179
-0.502375	-0.172174
-0.45236	0.0753656
-0.512317	-0.216886
-0.462389	0.0954879
-0.522327	-0.264729
-0.472389	0.115152
-0.532407	-0.309403
-0.482338	0.1528
-0.542471	-0.353122
-0.49233	0.198467
-0.552436	-0.386227
-0.502295	0.235008
-0.562447	-0.400851
-0.512347	0.272962
-0.572442	-0.403944
-0.522366	0.302668
-0.582411	-0.398904
-0.532384	0.314467
-0.592414	-0.366601
-0.542448	0.319048
-0.602409	-0.335444
-0.552409	0.308281
-0.612401	-0.297375
-0.562431	0.282966
-0.622392	-0.267555
-0.572373	0.263645
-0.632453	-0.240368
-0.582388	0.227371
-0.642425	-0.222537
-0.59241	0.194038
-0.652401	-0.210089
-0.602432	0.166432
-0.662378	-0.194205
-0.612401	0.14692
-0.672392	-0.194358
-0.622396	0.122025
-0.682388	-0.190043
-0.632414	0.118932
-0.692398	-0.17519
-0.642414	0.103354
-0.702356	-0.172708
-0.652375	0.101864
-0.712381	-0.17099
-0.662336	0.095717
-0.722365	-0.170646
-0.672396	0.0834985
-0.732349	-0.172785
-0.682369	0.0828876
-0.74236	-0.169272
-0.692395	0.087355
-0.752398	-0.168317
-0.702352	0.0789166
-0.762343	-0.16763
-0.712366	0.0749838
-0.772343	-0.175801
-0.722312	0.077962
-0.782338	-0.177481
-0.732376	0.0740292
-0.792352	-0.177328
-0.742307	0.0730746
-0.802394	-0.174388
-0.75234	0.0715473
-0.812343	-0.175648
-0.762351	0.076282
-0.82235	-0.171181
-0.772362	0.0722728
-0.832346	-0.17477
-0.782376	0.0726164
-0.842322	-0.169425
-0.792341	0.0723873
-0.852367	-0.163239
-0.802359	0.0688363
-0.862404	-0.157932
-0.812374	0.068149
-0.872411	-0.156786
-0.822339	0.0688363
-0.882319	-0.145599
-0.832311	0.0621161
-0.892337	-0.140444
-0.842326	0.0628798
-0.90231	-0.133036
-0.852321	0.0519595
-0.912358	-0.128493
-0.862385	0.0557014
-0.922392	-0.125133
-0.872362	0.0519977
-0.932429	-0.119978
-0.882349	0.0469576
-0.942417	-0.121047
-0.892349	0.0443611
-0.952352	-0.113678
-0.902336	0.0372209
-0.962393	-0.111807
-0.912381	0.0388628
-0.972411	-0.112036
-0.922293	0.0459648
-0.98241	-0.107263
-0.932456	0.0413447
-0.992448	-0.110012
-0.942402	0.0413447
-1.00237	-0.112227
-0.952397	0.0402374
-1.01241	-0.109936
-0.962385	0.0440175
-1.02239	-0.107645
-0.972426	0.0422611
-1.03239	-0.111692
-0.982418	0.0425283
-1.04244	-0.112952
-0.992409	0.0485231
-1.0524	-0.111463
-1.00242	0.0385191
-1.06237	-0.11658
-1.0124	0.042032
-1.07238	-0.123605
-1.02235	0.0465757
-1.08239	-0.123109
-1.03241	0.0450102
-1.09238	-0.12876
-1.04244	0.0447811
-1.10244	-0.128416
-1.0524	0.0484849
-1.1124	-0.136511
-1.06241	0.0448193
-1.12243	-0.140253
-1.07235	0.0528377

File: CoPc_CNT_VFSWV_scans_45_44_C02.txt
Ewe/V	<I>/mA
-0.122372	0.0123032
-0.072406	0.024697
-0.13239	0.0030091
-0.0823748	0.0280189
-0.142359	0.00224545
-0.0923892	0.0257661
-0.152377	0.000870865
-0.102369	0.024697
-0.162365	0.00522371
-0.112376	0.0274843
-0.172364	0.000679951
-0.122364	0.0244679
-0.182344	-0.00382563
-0.132352	0.0277898
-0.192359	-0.00714753
-0.142408	0.0279807
-0.20243	0.00533826
-0.152358	0.0329063
-0.212464	-0.00310015
-0.162369	0.0241624
-0.222456	-0.00264196
-0.17241	0.0283243
-0.232466	-0.000312803
-0.182329	0.0318372
-0.242404	-0.0114622
-0.192343	0.0249261
-0.25243	-0.00642206
-0.202438	0.0216041
-0.262437	-0.00890394
-0.212418	0.0232078
-0.272383	-0.0096676
-0.222406	0.0225205
-0.282405	-0.00577295
-0.232409	0.0206114
-0.292408	-0.00768209
-0.242404	0.0269116
-0.302381	-0.00691844
-0.252419	0.0217569
-0.312418	-0.00470383
-0.262445	0.0195805
-0.32244	-0.011004
-0.272429	0.0303098
-0.332367	-0.0142495
-0.282428	0.033059
-0.342335	-0.00779664
-0.292393	0.028668
-0.352396	-0.0155096
-0.302407	0.0247733
-0.362376	-0.0171896
-0.312437	0.0262625
-0.372402	-0.0181442
-0.322467	0.0324099
-0.38239	-0.0166169
-0.332382	0.0266061
-0.392393	-0.0201297
-0.342427	0.027828
-0.402369	-0.0241389
-0.352415	0.025537
-0.412429	-0.0255517
-0.36241	0.0305771
-0.422367	-0.037312
-0.372402	0.0336699
-0.432386	-0.0385338
-0.382413	0.0312262
-0.442354	-0.0375029
-0.392416	0.0326008
-0.452392	-0.0520506
-0.402384	0.0386337
-0.46233	-0.0607562
-0.412345	0.0319135
-0.472398	-0.0775567
-0.422402	0.0403137
-0.48242	-0.0977936
-0.432371	0.0437502
-0.492377	-0.127156
-0.442404	0.0588706
-0.502331	-0.150448
-0.452338	0.0613143
-0.512341	-0.193098
-0.462391	0.0790311
-0.52236	-0.230441
-0.47236	0.0947243
-0.532317	-0.278017
-0.482382	0.127982
-0.542362	-0.304439
-0.492324	0.160055
-0.552365	-0.33132
-0.502346	0.192243
-0.56233	-0.350755
-0.512357	0.216528
-0.572333	-0.3498
-0.522367	0.25261
-0.582313	-0.339071
-0.532328	0.259521
-0.592358	-0.319292
-0.542324	0.26502
-0.60227	-0.294855
-0.552373	0.256085
-0.612364	-0.264614
-0.562334	0.238368
-0.622425	-0.237352
-0.57231	0.219506
-0.632431	-0.224026
-0.582328	0.19232
-0.642457	-0.202987
-0.592377	0.157268
-0.652445	-0.193976
-0.602334	0.144973
-0.662441	-0.185691
-0.612364	0.122025
-0.672394	-0.175228
-0.622413	0.106446
-0.682401	-0.174999
-0.632435	0.093197
-0.692369	-0.170761
-0.642434	0.0882714
-0.702479	-0.16679
-0.652426	0.0818185
-0.712383	-0.170265
-0.662364	0.0768929
-0.722402	-0.168432
-0.672421	0.0725782
-0.732408	-0.174045
-0.682447	0.0662017
-0.742385	-0.164575
-0.692434	0.0712418
-0.752411	-0.170074
-0.702388	0.0674999
-0.762337	-0.171639
-0.712437	0.0678054
-0.772405	-0.169005
-0.722379	0.0617343
-0.782397	-0.172403
-0.732397	0.0660872
-0.792419	-0.171066
-0.742327	0.0680345
-0.802357	-0.168355
-0.752411	0.0581451
-0.812353	-0.170646
-0.762356	0.0666599
-0.822424	-0.169845
-0.772413	0.0559687
-0.832362	-0.172212
-0.782336	0.0536777
-0.842392	-0.163774
-0.792354	0.0567705
-0.85238	-0.161444
-0.80235	0.0567705
-0.862372	-0.153922
-0.812364	0.0544796
-0.872371	-0.150371
-0.822424	0.0541359
-0.882355	-0.149722
-0.832359	0.0426811
-0.892377	-0.140597
-0.842362	0.0441702
-0.902395	-0.142391
-0.85238	0.0453539
-0.912383	-0.129676
-0.86241	0.0415738
-0.922355	-0.126125
-0.872371	0.0306917
-0.932332	-0.121772
-0.882339	0.0379464
-0.942373	-0.121276
-0.892327	0.0355791
-0.952372	-0.11341
-0.902357	0.0296989
-0.962322	-0.113219
-0.912394	0.0305008
-0.972271	-0.101917
-0.922397	0.0306535
-0.982362	-0.106347
-0.932336	0.0329445
-0.99235	-0.111425
-0.942346	0.0286298
-1.00235	-0.106003
-0.952311	0.0314935
-1.01236	-0.107225
-0.962322	0.0294698
-1.02243	-0.107607
-0.972268	0.03535
-1.0324	-0.110279
-0.982374	0.0327154
-1.04241	-0.109936
-0.992323	0.0356173
-1.05243	-0.111845
-1.0023	0.0326772
-1.06235	-0.109248
-1.01247	0.0334408
-1.07238	-0.113945
-1.02241	0.039741
-1.08241	-0.122269
-1.0324	0.038901
-1.09238	-0.120092
-1.04238	0.0417265
-1.1024	-0.121467
-1.05243	0.0395119
-1.11242	-0.127118
-1.06246	0.0450102
-1.12239	-0.134984
-1.07236	0.0435975

File: CoPc_CNT_VFSWV_scans_46_45_C02.txt
Ewe/V	<I>/mA
-0.122379	0.0102795
-0.0723564	0.0312956
-0.132367	0.00640738
-0.0823938	0.0320593
-0.14237	0.00876777
-0.0923548	0.0264013
-0.152354	0.0052966
-0.102362	0.0297336
-0.162361	0.00470651
-0.112395	0.0245963
-0.17233	-0.00490863
-0.122375	0.0254988
-0.182375	0.00543545
-0.132378	0.0233814
-0.192359	0.00724046
-0.142351	0.0234855
-0.202388	0.00106178
-0.152385	0.0276856
-0.212452	-0.00115977
-0.162395	0.0270608
-0.222463	0.00227669
-0.172333	0.0322329
-0.232451	-0.00313833
-0.182359	0.0249434
-0.242427	0.000541104
-0.192359	0.0302196
-0.252465	0.000853509
-0.202426	0.0300113
-0.262429	-1.42825e-05
-0.212475	0.026436
-0.272429	-0.00220112
-0.222413	0.0277551
-0.282447	-0.00556815
-0.232439	0.0282063
-0.292427	-0.00598469
-0.242423	0.0281022
-0.302445	-0.000639093
-0.25243	0.0283799
-0.312471	-0.00709546
-0.262475	0.02536
-0.322402	-0.0102195
-0.272467	0.030289
-0.332428	-0.0121634
-0.282409	0.0321982
-0.342412	-0.0107055
-0.292412	0.0294212
-0.352403	-0.0117121
-0.30243	0.0268873
-0.362395	-0.00910874
-0.312429	0.0286576
-0.37244	-0.0121287
-0.322421	0.0294559
-0.382374	-0.0150444
-0.332432	0.0299766
-0.392389	-0.0220215
-0.34245	0.0368842
-0.4024	-0.0156345
-0.352346	0.0342114
-0.412368	-0.0215702
-0.362414	0.0327535
-0.422417	-0.0287208
-0.37244	0.0323023
-0.432409	-0.0266729
-0.382424	0.0300113
-0.442324	-0.036288
-0.392389	0.0334131
-0.452361	-0.040384
-0.402346	0.0391405
-0.462418	-0.0512487
-0.412414	0.0370231
-0.472375	-0.0633631
-0.422352	0.0436877
-0.482374	-0.077942
-0.432336	0.0490333
-0.492393	-0.10401
-0.4424	0.0482002
-0.502373	-0.134106
-0.452411	0.0582666
-0.512383	-0.16184
-0.462406	0.0708322
-0.522348	-0.199884
-0.472387	0.0847863
-0.532359	-0.228035
-0.482367	0.109709
-0.542339	-0.266635
-0.492331	0.1313
-0.552384	-0.286281
-0.502346	0.164068
-0.562338	-0.301589
-0.512341	0.191004
-0.572352	-0.307039
-0.522371	0.215649
-0.582325	-0.296278
-0.532363	0.227208
-0.592316	-0.278055
-0.542354	0.228007
-0.6023	-0.251431
-0.552334	0.224709
-0.612425	-0.235984
-0.562303	0.208117
-0.622383	-0.210471
-0.572329	0.188123
-0.632401	-0.196725
-0.58234	0.167435
-0.642396	-0.189852
-0.59232	0.140499
-0.652392	-0.17687
-0.602292	0.126336
-0.662395	-0.174788
-0.612414	0.10964
-0.672394	-0.172809
-0.622451	0.0955122
-0.68242	-0.164409
-0.632489	0.0872509
-0.69245	-0.161424
-0.642419	0.0793019
-0.702434	-0.160556
-0.652415	0.0695132
-0.71241	-0.160105
-0.662349	0.0706934
-0.722375	-0.157952
-0.672428	0.0664586
-0.732321	-0.159306
-0.682397	0.064966
-0.7424	-0.162638
-0.692423	0.0653825
-0.752315	-0.159028
-0.702384	0.0629527
-0.762398	-0.163402
-0.712375	0.0622237
-0.772375	-0.163402
-0.72239	0.0567393
-0.782374	-0.163819
-0.732412	0.062675
-0.792339	-0.160591
-0.742438	0.0547607
-0.802338	-0.160625
-0.75238	0.0544136
-0.812375	-0.156147
-0.762376	0.059308
-0.822382	-0.16243
-0.772378	0.05365
-0.832401	-0.159966
-0.782355	0.0525045
-0.842404	-0.157154
-0.792396	0.0487556
-0.852369	-0.151843
-0.802353	0.0522962
-0.862318	-0.150142
-0.812364	0.0503871
-0.872394	-0.149934
-0.822367	0.0394529
-0.882366	-0.141811
-0.832362	0.0361553
-0.892369	-0.139243
-0.842385	0.0334478
-0.902346	-0.135008
-0.852349	0.0426464
-0.912364	-0.130947
-0.862318	0.0335866
-0.922352	-0.120221
-0.872413	0.0304279
-0.932358	-0.124699
-0.882393	0.031018
-0.942331	-0.111855
-0.892362	0.0291782
-0.952323	-0.106926
-0.902338	0.021264
-0.962326	-0.111612
-0.912326	0.0229301
-0.97231	-0.104878
-0.922333	0.0213334
-0.982336	-0.112168
-0.932271	0.0206392
-0.992354	-0.104844
-0.942316	0.0226872
-1.00233	-0.102796
-0.952307	0.0310874
-1.01237	-0.110085
-0.962425	0.0247699
-1.02247	-0.108384
-0.972329	0.0249781
-1.03244	-0.107551
-0.982339	0.0273385
-1.04241	-0.109183
-0.9923	0.0329271
-1.05239	-0.11189
-1.00232	0.0250823
-1.06236	-0.103039
-1.01241	0.0275121
-1.07241	-0.115604
-1.02243	0.0274427
-1.08237	-0.11852
-1.03242	0.0286228
-1.09245	-0.122477
-1.04246	0.0318857
-1.10237	-0.124109
-1.05244	0.0248393
-1.11241	-0.129697
-1.06245	0.0375437
-1.12239	-0.136049
-1.07245	0.026193

File: CoPc_CNT_VFSWV_scans_47_46_C02.txt
Ewe/V	<I>/mA
-0.122391	-0.00804827
-0.0723946	0.0206739
-0.132398	0.00192957
-0.0823938	0.0180011
-0.142362	-0.00102092
-0.0923511	0.0237979
-0.152339	-0.00338132
-0.102396	0.0178969
-0.162411	0.00345688
-0.112376	0.0200491
-0.172379	-0.000430823
-0.12244	0.0176192
-0.18234	-0.00341603
-0.132398	0.0249781
-0.192332	-0.00181929
-0.142355	0.0216805
-0.202411	-0.00584584
-0.1524	0.0220971
-0.212468	-0.00324247
-0.162414	0.0173068
-0.222505	-0.00515161
-0.172375	0.0255335
-0.232455	-0.0024441
-0.182378	0.0249087
-0.242481	-0.00133333
-0.192393	0.0153283
-0.252468	-0.00414497
-0.202453	0.0156754
-0.262494	-0.0092823
-0.212414	0.0211946
-0.272471	-0.00900461
-0.222463	0.0172374
-0.282439	-0.00824095
-0.232504	0.0190771
-0.292458	-0.0128923
-0.242435	0.0167862
-0.302457	-0.0124064
-0.252453	0.0161961
-0.31246	-0.0147667
-0.262441	0.0145993
-0.322448	-0.0185156
-0.272406	0.0200144
-0.332428	-0.0120592
-0.282474	0.0159184
-0.342381	-0.0209107
-0.292442	0.0151547
-0.352415	-0.0149056
-0.302453	0.0215764
-0.362391	-0.0208066
-0.312445	0.0178622
-0.372436	-0.0208066
-0.322444	0.0209169
-0.382428	-0.0210148
-0.332451	0.0254988
-0.392423	-0.0247984
-0.342461	0.0220276
-0.40238	-0.0228546
-0.352411	0.0235202
-0.412422	-0.0317755
-0.362403	0.0292129
-0.422425	-0.0277836
-0.372406	0.0291088
-0.43239	-0.0249373
-0.38239	0.0311221
-0.442385	-0.0335111
-0.392408	0.0339337
-0.45238	-0.0389955
-0.402403	0.0322329
-0.462395	-0.045313
-0.412422	0.0336213
-0.472367	-0.0660706
-0.422417	0.0305667
-0.482386	-0.0679103
-0.432401	0.044382
-0.492381	-0.0864811
-0.442351	0.0404595
-0.502445	-0.119179
-0.452365	0.0444861
-0.512402	-0.146741
-0.462361	0.0589609
-0.522386	-0.173746
-0.472367	0.0719083
-0.532363	-0.205091
-0.482412	0.0876327
-0.542389	-0.23043
-0.492343	0.112868
-0.552342	-0.254416
-0.502346	0.129183
-0.562341	-0.268579
-0.512368	0.155494
-0.57239	-0.269759
-0.522367	0.176286
-0.582386	-0.264205
-0.532363	0.190171
-0.592381	-0.241087
-0.542343	0.188366
-0.602418	-0.227896
-0.552376	0.184409
-0.612444	-0.209638
-0.562311	0.180868
-0.622398	-0.198947
-0.572356	0.156882
-0.632492	-0.186902
-0.582317	0.146469
-0.64245	-0.171143
-0.592312	0.124566
-0.652437	-0.169546
-0.602342	0.107037
-0.662383	-0.163853
-0.612418	0.0953387
-0.672405	-0.16007
-0.622467	0.0845434
-0.682412	-0.155384
-0.632447	0.0766291
-0.692411	-0.148546
-0.642469	0.0690967
-0.702403	-0.147122
-0.652434	0.063161
-0.712429	-0.15226
-0.662414	0.0650701
-0.722356	-0.145838
-0.672428	0.0651048
-0.732408	-0.153509
-0.682428	0.0581972
-0.742431	-0.15639
-0.692415	0.0554203
-0.752395	-0.147331
-0.702388	0.0528863
-0.762402	-0.158369
-0.712421	0.0521227
-0.772398	-0.151184
-0.722405	0.0510119
-0.782443	-0.154898
-0.732393	0.0479573
-0.792312	-0.155314
-0.742404	0.0584055
-0.802399	-0.151149
-0.752372	0.0510466
-0.81233	-0.155488
-0.762395	0.054726
-0.822398	-0.157293
-0.772421	0.047749
-0.832397	-0.149726
-0.782389	0.0458398
-0.842365	-0.142853
-0.792392	0.0553508
-0.852361	-0.136119
-0.80238	0.0517061
-0.862356	-0.140319
-0.812356	0.0546913
-0.872401	-0.129038
-0.822398	0.0506648
-0.882362	-0.124942
-0.832473	0.042334
-0.892388	-0.118416
-0.842396	0.0429241
-0.902395	-0.114979
-0.852426	0.0446249
-0.912352	-0.115326
-0.862349	0.0303237
-0.922336	-0.111439
-0.872375	0.0284146
-0.932401	-0.112966
-0.882408	0.0300113
-0.942384	-0.106093
-0.892373	0.0291088
-0.952334	-0.105121
-0.902346	0.031018
-0.96236	-0.102657
-0.912356	0.0255335
-0.972279	-0.103143
-0.922375	0.0279286
-0.982343	-0.104323
-0.932347	0.0277898
-0.992308	-0.0984219
-0.942358	0.0222012
-1.00236	-0.0994285
-0.952326	0.02536
-1.01235	-0.0960268
-0.962333	0.0247351
-1.02242	-0.098283
-0.972325	0.0289353
-1.03241	-0.103525
-0.982358	0.0274427
-1.0424	-0.0988731
-0.992308	0.0276162
-1.05243	-0.100991
-1.00231	0.0321982
-1.06245	-0.0988731
-1.01246	0.0282757
-1.07242	-0.105156
-1.02238	0.0291088
-1.08243	-0.09443
-1.03246	0.0308791
-1.0924	-0.112793
-1.04243	0.0295254
-1.10239	-0.112376
-1.05242	0.0358429
-1.11238	-0.115014
-1.06242	0.0358082
-1.12237	-0.12397
-1.0724	0.0345585

File: CoPc_CNT_VFSWV_scans_48_47_C02.txt
Ewe/V	<I>/mA
-0.122433	0.0144414
-0.0724099	0.039181
-0.132405	0.0160485
-0.0823976	0.0320853
-0.142408	0.0163667
-0.0924274	0.0352354
-0.152377	0.0147758
-0.102369	0.0328808
-0.162357	0.0141076
-0.112399	0.0313853
-0.172364	0.0114666
-0.12241	0.0304307
-0.182371	0.0166213
-0.13234	0.0264852
-0.192389	0.0111166
-0.142362	0.0345036
-0.202465	0.00997111
-0.152358	0.0363491
-0.212449	0.00720285
-0.162365	0.0329763
-0.222505	0.0114348
-0.172394	0.0327535
-0.23247	0.0113393
-0.182398	0.0378446
-0.242431	0.00675739
-0.192362	0.0338354
-0.252434	0.00405277
-0.202457	0.0313853
-0.262452	0.00631192
-0.212464	0.0306535
-0.27244	0.00440278
-0.222452	0.0349809
-0.282436	0.00968474
-0.232436	0.0299216
-0.29245	0.00036176
-0.242412	0.0352036
-0.30243	0.00663011
-0.252434	0.0285534
-0.312429	0.00265273
-0.262433	0.03514
-0.322474	0.00313002
-0.272459	0.0343763
-0.332401	0.000584494
-0.282462	0.0301762
-0.342408	0.00201635
-0.292412	0.0330717
-0.352415	-0.0069248
-0.302472	0.0339308
-0.36241	-0.000115525
-0.312422	0.0302398
-0.372452	-0.00472929
-0.322432	0.0378764
-0.382401	-0.000815544
-0.332409	0.0353945
-0.3924	-0.0047611
-0.342481	0.0335172
-0.402358	-0.0113795
-0.352442	0.0370809
-0.412437	-0.00845211
-0.36241	0.0319581
-0.422367	-0.0148159
-0.372406	0.0366991
-0.432367	-0.0196206
-0.38242	0.0366355
-0.442423	-0.021307
-0.392431	0.0404219
-0.45238	-0.0306936
-0.402426	0.0413129
-0.462422	-0.026589
-0.412437	0.0409628
-0.472448	-0.0405575
-0.422402	0.0439538
-0.482332	-0.0485441
-0.432413	0.0489494
-0.492412	-0.0596489
-0.442412	0.0485358
-0.502434	-0.0801086
-0.452403	0.0483767
-0.512395	-0.102732
-0.462395	0.0624407
-0.522329	-0.123701
-0.472383	0.0651453
-0.532347	-0.143651
-0.482397	0.0787002
-0.54232	-0.171461
-0.492427	0.0979826
-0.552361	-0.182025
-0.502392	0.116724
-0.562383	-0.193575
-0.512376	0.13222
-0.572367	-0.196184
-0.522364	0.144407
-0.582313	-0.182502
-0.532424	0.152711
-0.5924	-0.179575
-0.542339	0.158916
-0.602357	-0.170888
-0.552399	0.158757
-0.612475	-0.156029
-0.562315	0.141893
-0.622432	-0.148488
-0.572348	0.134193
-0.632447	-0.141328
-0.582328	0.12191
-0.642484	-0.138433
-0.592381	0.106001
-0.652384	-0.132324
-0.60235	0.0959143
-0.662498	-0.133501
-0.612452	0.0864641
-0.672428	-0.132674
-0.622444	0.0755183
-0.682435	-0.124496
-0.632462	0.0735137
-0.692385	-0.121314
-0.642473	0.0708409
-0.702403	-0.125578
-0.652426	0.0634907
-0.71244	-0.127105
-0.662425	0.0693454
-0.722401	-0.122682
-0.672478	0.0626952
-0.732416	-0.12071
-0.682416	0.0616134
-0.742396	-0.129524
-0.692457	0.054645
-0.752395	-0.127742
-0.702422	0.0603406
-0.762391	-0.126883
-0.712429	0.0561087
-0.772359	-0.124178
-0.722405	0.0527041
-0.782408	-0.125801
-0.732397	0.0617089
-0.792381	-0.127901
-0.742373	0.0592906
-0.802403	-0.131528
-0.752422	0.0569042
-0.812356	-0.135537
-0.76244	0.0550587
-0.822352	-0.123828
-0.772413	0.0546769
-0.832378	-0.129174
-0.782424	0.0524495
-0.842419	-0.122301
-0.792404	0.0501267
-0.852414	-0.119946
-0.80243	0.0548678
-0.862402	-0.112405
-0.812314	0.0537223
-0.872432	-0.114728
-0.822417	0.0443993
-0.882412	-0.106455
-0.832389	0.0493949
-0.892346	-0.0991364
-0.842335	0.0388946
-0.902365	-0.0979591
-0.852388	0.0450039
-0.912322	-0.0924544
-0.862375	0.0406447
-0.922356	-0.0872997
-0.872386	0.0335808
-0.93237	-0.0853587
-0.882404	0.0327854
-0.942365	-0.083736
-0.892365	0.0324035
-0.952334	-0.0853587
-0.902357	0.0369855
-0.962337	-0.0778813
-0.912333	0.0378128
-0.972329	-0.0782631
-0.92234	0.0295398
-0.982328	-0.0772131
-0.93237	0.0301762
-0.992335	-0.0783267
-0.942358	0.0305262
-1.0023	-0.0738084
-0.952311	0.0366673
-1.01237	-0.0772131
-0.962322	0.0339945
-1.02243	-0.0784858
-0.97231	0.0301444
-1.03239	-0.0753039
-0.982324	0.0330081
-1.04237	-0.0800131
-0.992335	0.0327217
-1.05242	-0.0793449
-1.00233	0.0350445
-1.06239	-0.0842451
-1.01245	0.0346627
-1.07236	-0.0916907
-1.02246	0.0324672
-1.08236	-0.0864724
-1.03244	0.0340263
-1.09241	-0.0975454
-1.04243	0.0394674
-1.10241	-0.0878406
-1.05241	0.0366036
-1.11238	-0.0907361
-1.06242	0.038831
-1.12246	-0.101046
-1.07238	0.044972