Folder: ElectrochemLabUtils/VFSWV_data_prep/Example_data/CoPc_VFSWV_txt_data

Note: README.md
# Plotting of the experimental electrochemical data.
Intended to introduce students into the world of electrochemical research going on in the School of Engineering, Macquarie University. The methods will be added as soon as decently written packages become available in the group.

# 1) Variable-Frequency Square Wave Voltammetry:
Time-resolved electrochemical method allowing for the direct observation of surface electron transfer in heterogeneous electrochemical systems.
The full description of the method is given in the paper <https://pubs.acs.org/doi/abs/10.1021/acs.analchem.1c01286>

**Installation:**
Simply load zip archive from Github, extract and open folder "ElectrochemLabUtils" in VSCode.

**Example usage:**

```python
import os
import numpy as np
import VFSWV_read_and_plot as VFSWV

# electrode size
e_size = 1.0

# location of the SWV files:
current_script_location = os.path.dirname(__file__)
data_folder_name = "Example_data\CoPc_VFSWV_txt_data"
directory_to_process = os.path.join(current_script_location, data_folder_name)

# create arrays of step delay times (ms) and frequencies (Hz)
step_times = np.array([0.4, 0.6, 0.8, 1.0, 1.2, 1.4, 1.6, 1.8, 2.0, 2.2, 2.4, 2.6, 2.8, 3.0, 3.2, 3.4, 3.6, 3.8,
                    4.0, 4.2, 4.4, 4.6, 4.8, 5.0, 5.4, 5.8, 6.2, 6.6, 7, 7.4, 7.8, 8.2, 8.6, 9, 9.4,
            9.8, 10.2, 10.6, 12.8, 13.6, 14.4, 15.2, 16, 17, 18, 19, 20, 22, 24, 26, 28, 34, 38, 42, 46, 50, 55,
                    60, 65, 70, 75, 80, 85, 90, 95, 100, 125, 150, 175, 200, 300, 400, 500, 750, 1000, 1500])
frequencies = 500/step_times

# define a window of interest across x and y axis
e_boundary_highest, e_boundary_lowest = 0, -0.9
log_frequency_highest, log_frequency_lowest = 3.09, -0.47

# produce the linearly spaced arrays for interpolaiton and plotting
e_new = np.linspace(e_boundary_highest, e_boundary_lowest, 100)
freq_new = np.linspace(log_frequency_highest, log_frequency_lowest, 100)


# generate the experimentally recorded 2D VF-SWV and make the linealry spaced 2D arrays for plotting
x, y = np.meshgrid(e_new, freq_new)
sq_w_v = VFSWV.extraction_of_swv(path=directory_to_process,
                            experimental_frequencies=frequencies,
                            array_of_frequencies_for_plotting=freq_new,
                            array_of_potentials_for_plotting=e_new,
                            size_of_electrode=e_size, 
                            dlc_correction=False)

# plot the experimental data and preview only
VFSWV.plot_2D(x=x, 
        y=y, 
        z=sq_w_v, 
        figure_name=None)

VFSWV.plot_3D(x=x, 
        y=y, 
        z=sq_w_v, 
        figure_name=None)

# save figures
# figure_export_dir = os.path.join(current_script_location, 'Example_plots')
# VFSWV.plot_2D(x=x, 
#         y=y, 
#         z=sq_w_v, 
#         figure_name=figure_export_dir + "/CoPc_CNT_2D_graph")

# VFSWV.plot_3D(x=x, 
#         y=y, 
#         z=sq_w_v,

File: CoPc_CNT_VFSWV_scans_01_0_C02.txt
Ewe/V	<I>/mA
-0.121842	-3.91996
-0.0719227	7.96052
-0.131899	-6.45909
-0.0819448	4.61546
-0.141864	-7.12271
-0.0918791	4.2573
-0.151871	-7.33463
-0.101981	4.14734
-0.161912	-7.42703
-0.111904	4.1061
-0.171888	-7.46483
-0.121938	4.08243
-0.181864	-7.49996
-0.131926	4.0641
-0.191894	-7.53852
-0.141845	4.04081
-0.201974	-7.55609
-0.151848	4.02172
-0.211897	-7.59503
-0.161839	4.0095
-0.221919	-7.6294
-0.171888	3.98315
-0.231975	-7.65918
-0.181884	3.97399
-0.241967	-7.66949
-0.191848	3.95948
-0.25192	-7.70424
-0.20189	3.94268
-0.261889	-7.71111
-0.211809	3.9316
-0.271938	-7.76227
-0.221816	3.92053
-0.282101	-7.79015
-0.231842	3.89495
-0.291963	-7.81688
-0.241753	3.88617
-0.301977	-7.85429
-0.251825	3.86707
-0.312041	-7.88446
-0.26182	3.84989
-0.321915	-7.91691
-0.27198	3.81056
-0.332006	-7.96922
-0.281975	3.79491
-0.341967	-8.02268
-0.291936	3.77964
-0.352	-8.1063
-0.301958	3.73534
-0.361999	-8.18534
-0.311942	3.71243
-0.371983	-8.29034
-0.32188	3.66509
-0.381952	-8.41634
-0.33191	3.61354
-0.391951	-8.558
-0.341825	3.55856
-0.401954	-8.71608
-0.352065	3.48143
-0.411923	-8.90203
-0.361931	3.39628
-0.421941	-9.12693
-0.371888	3.27715
-0.431899	-9.38046
-0.38191	3.13282
-0.44189	-9.67714
-0.391883	2.9568
-0.451886	-9.9891
-0.401889	2.75481
-0.4619	-10.3537
-0.411862	2.50547
-0.471888	-10.7436
-0.421915	2.22216
-0.481879	-11.1686
-0.431845	1.89989
-0.491871	-11.6218
-0.441944	1.54823
-0.501908	-12.1239
-0.451866	1.1706
-0.5119	-12.6271
-0.461904	0.751355
-0.521785	-13.1541
-0.471972	0.324852
-0.531906	-13.7028
-0.481933	-0.143269
-0.541901	-14.2404
-0.491879	-0.606427
-0.551901	-14.8097
-0.501912	-1.08142
-0.561854	-15.3641
-0.511881	-1.57436
-0.571819	-15.9158
-0.521876	-2.05699
-0.58183	-16.4313
-0.531879	-2.52893
-0.591863	-16.938
-0.541871	-2.98675
-0.601817	-17.4137
-0.551905	-3.40676
-0.611896	-17.8467
-0.561904	-3.77293
-0.621899	-18.2137
-0.571834	-4.1055
-0.631917	-18.4993
-0.581818	-4.37431
-0.64192	-18.72
-0.591932	-4.54881
-0.651901	-18.8319
-0.601824	-4.6435
-0.661881	-18.8223
-0.612003	-4.66488
-0.67188	-18.6887
-0.62201	-4.52399
-0.681898	-18.4241
-0.63204	-4.26243
-0.691909	-18.0033
-0.641993	-3.87755
-0.701912	-17.4661
-0.652019	-3.37697
-0.711923	-16.8093
-0.6619	-2.81225
-0.721968	-16.1068
-0.671952	-2.21316
-0.731917	-15.3901
-0.681948	-1.65455
-0.741825	-14.7242
-0.692023	-1.15588
-0.751874	-14.1373
-0.701954	-0.717539
-0.761873	-13.6478
-0.711961	-0.375421
-0.771929	-13.2789
-0.722029	-0.135633
-0.781856	-12.9765
-0.731933	0.0335172
-0.79184	-12.7581
-0.74205	0.15532
-0.801954	-12.5997
-0.751954	0.23245
-0.811797	-12.5008
-0.761919	0.273687
-0.821937	-12.4313
-0.772071	0.303852
-0.831818	-12.3717
-0.781871	0.327525
-0.841855	-12.3629
-0.791958	0.29507
-0.851797	-12.3484
-0.801923	0.287433
-0.861861	-12.3553
-0.811892	0.249632
-0.871822	-12.3736
-0.821956	0.230923
-0.881829	-12.3751
-0.831948	0.206485
-0.891844	-12.3855
-0.841913	0.188921
-0.901866	-12.4034
-0.851874	0.164866
-0.911915	-12.4057
-0.861957	0.159902
-0.921883	-12.4015
-0.871952	0.156466
-0.931845	-12.3973
-0.881929	0.170212
-0.941905	-12.3729
-0.891962	0.177467
-0.951965	-12.3862
-0.901961	0.190449
-0.961945	-12.366
-0.911907	0.219086
-0.971975	-12.3618
-0.921952	0.238559
-0.982024	-12.3385
-0.931822	0.267578
-0.991947	-12.3247
-0.941951	0.287815
-1.0019	-12.3194
-0.952068	0.303088
-1.01188	-12.3026
-0.962014	0.31187
-1.02194	-12.2919
-0.971929	0.352344
-1.0319	-12.2801
-0.981902	0.361126
-1.04194	-12.2793
-0.991935	0.380217
-1.05188	-12.2785
-1.00192	0.389381
-1.06193	-12.2621
-1.01197	0.423364
-1.07188	-12.2476
-1.02198	0.441692
-1.08183	-12.243
-1.03202	0.458492
-1.09188	-12.2392
-1.04197	0.473002
-1.10187	-12.2419
-1.05194	0.473765
-1.11188	-12.2518
-1.06195	0.477966
-1.12191	-12.2854
-1.07199	0.719281

File: CoPc_CNT_VFSWV_scans_02_1_C02.txt
Ewe/V	<I>/mA
-0.122281	-2.80353
-0.0723192	6.67022
-0.132257	-6.06352
-0.0823337	4.53986
-0.142253	-6.44974
-0.0922909	4.3814
-0.152309	-6.53622
-0.102313	4.34417
-0.162266	-6.57307
-0.112305	4.33863
-0.172323	-6.60075
-0.122308	4.32737
-0.182234	-6.62538
-0.132246	4.31152
-0.192249	-6.65459
-0.142279	4.31229
-0.202298	-6.67884
-0.152248	4.30198
-0.21227	-6.70308
-0.162282	4.30446
-0.222266	-6.72962
-0.172239	4.29472
-0.23228	-6.75043
-0.182261	4.28002
-0.242249	-6.76055
-0.192283	4.27754
-0.252282	-6.78708
-0.202229	4.26819
-0.262297	-6.80007
-0.212228	4.26723
-0.272372	-6.83882
-0.222266	4.26112
-0.282345	-6.8539
-0.232253	4.25788
-0.292386	-6.87987
-0.242226	4.24432
-0.302343	-6.90545
-0.252248	4.23668
-0.312358	-6.94096
-0.26219	4.23688
-0.322372	-6.98029
-0.272338	4.21358
-0.332318	-7.01656
-0.282318	4.20633
-0.342321	-7.06124
-0.292314	4.20518
-0.352351	-7.14123
-0.302305	4.18915
-0.362362	-7.22141
-0.312297	4.1943
-0.372365	-7.30809
-0.322342	4.18113
-0.382371	-7.42512
-0.332314	4.17196
-0.392348	-7.56086
-0.342325	4.15154
-0.402351	-7.71397
-0.352282	4.12328
-0.412335	-7.89152
-0.362339	4.09102
-0.422292	-8.09389
-0.3723	4.02821
-0.432387	-8.3312
-0.382295	3.9421
-0.44231	-8.58187
-0.392271	3.83748
-0.452313	-8.86538
-0.40232	3.68991
-0.462255	-9.17962
-0.412247	3.52381
-0.472269	-9.51429
-0.422292	3.31419
-0.482299	-9.88238
-0.432272	3.08986
-0.492271	-10.2674
-0.442302	2.81991
-0.502271	-10.6615
-0.452267	2.52724
-0.512247	-11.0975
-0.46222	2.21299
-0.522193	-11.526
-0.472315	1.88309
-0.532223	-11.9675
-0.482337	1.53945
-0.542241	-12.4095
-0.492264	1.17786
-0.552274	-12.8509
-0.502244	0.813974
-0.562235	-13.2803
-0.512289	0.459829
-0.572235	-13.6873
-0.522284	0.124583
-0.582245	-14.0672
-0.532333	-0.207798
-0.59226	-14.4084
-0.542279	-0.496079
-0.602213	-14.7089
-0.552236	-0.747322
-0.612312	-14.9592
-0.562224	-0.936709
-0.622288	-15.1274
-0.572235	-1.07818
-0.632345	-15.2114
-0.582268	-1.14481
-0.642336	-15.203
-0.59226	-1.12896
-0.652274	-15.0898
-0.60229	-1.02777
-0.662289	-14.8565
-0.612319	-0.845261
-0.672311	-14.5302
-0.622299	-0.555453
-0.682287	-14.1088
-0.632341	-0.203598
-0.692325	-13.6168
-0.642317	0.190067
-0.702324	-13.0907
-0.652358	0.586214
-0.712289	-12.5722
-0.662293	0.955251
-0.722322	-12.1052
-0.672334	1.26778
-0.732352	-11.6764
-0.682341	1.52017
-0.742263	-11.3217
-0.692302	1.71184
-0.752286	-11.0546
-0.702305	1.84835
-0.762243	-10.8293
-0.7123	1.94056
-0.772242	-10.6523
-0.72228	1.99841
-0.78226	-10.5229
-0.732318	2.02323
-0.792252	-10.4376
-0.74229	2.04251
-0.80224	-10.3738
-0.75227	2.03983
-0.812254	-10.3293
-0.762262	2.02456
-0.822307	-10.3123
-0.772311	1.99764
-0.832287	-10.3024
-0.782276	1.98619
-0.842252	-10.294
-0.792305	1.96347
-0.852266	-10.2907
-0.802213	1.93999
-0.862285	-10.294
-0.812243	1.923
-0.872315	-10.2883
-0.822299	1.8997
-0.882279	-10.29
-0.832256	1.89379
-0.892279	-10.2927
-0.84229	1.88329
-0.902301	-10.2829
-0.852312	1.88309
-0.912243	-10.2636
-0.862277	1.89665
-0.922238	-10.2415
-0.872299	1.91249
-0.932241	-10.2127
-0.882199	1.9396
-0.942263	-10.1928
-0.892271	1.96328
-0.952308	-10.189
-0.902263	1.99898
-0.962357	-10.1613
-0.912262	2.02876
-0.97236	-10.1367
-0.92223	2.07
-0.982333	-10.1136
-0.932188	2.11238
-0.99232	-10.0895
-0.942244	2.13663
-1.00232	-10.084
-0.952335	2.1498
-1.01235	-10.0616
-0.962327	2.18226
-1.02226	-10.0494
-0.972353	2.20058
-1.03233	-10.0563
-0.982344	2.22273
-1.04235	-10.0426
-0.99237	2.24927
-1.05231	-10.0347
-1.00233	2.25652
-1.06231	-10.0298
-1.01233	2.2863
-1.07228	-10.0185
-1.02236	2.30368
-1.08235	-10.0175
-1.03232	2.31704
-1.09231	-10.0288
-1.04229	2.3138
-1.10225	-10.045
-1.05231	2.3222
-1.11225	-10.0672
-1.06233	2.3117
-1.12225	-10.096
-1.07236	2.29566

File: CoPc_CNT_VFSWV_scans_03_2_C02.txt
Ewe/V	<I>/mA
-0.122319	-2.02624
-0.072365	4.17464
-0.132303	-4.66679
-0.082349	3.56734
-0.142314	-4.84415
-0.0923253	3.50987
-0.152282	-4.89398
-0.102382	3.50014
-0.162305	-4.92853
-0.112305	3.50166
-0.172327	-4.95412
-0.122277	3.50644
-0.18228	-4.9755
-0.132299	3.50892
-0.192314	-5.00032
-0.142314	3.51217
-0.202301	-5.03105
-0.152305	3.52247
-0.212289	-5.05797
-0.162308	3.51541
-0.222254	-5.07344
-0.172308	3.51713
-0.232292	-5.09329
-0.182292	3.524
-0.242333	-5.12021
-0.192275	3.51006
-0.25229	-5.13548
-0.202225	3.50682
-0.262293	-5.154
-0.212297	3.50777
-0.272365	-5.18531
-0.222266	3.50663
-0.282391	-5.21777
-0.232246	3.52114
-0.292401	-5.23285
-0.242256	3.52362
-0.302382	-5.27791
-0.252267	3.51942
-0.312385	-5.318
-0.262247	3.53164
-0.322338	-5.3495
-0.272384	3.52133
-0.332326	-5.40735
-0.282337	3.5345
-0.342355	-5.47989
-0.292359	3.56658
-0.35234	-5.55454
-0.302401	3.58567
-0.362362	-5.65554
-0.312377	3.6124
-0.37233	-5.77237
-0.322327	3.64924
-0.382329	-5.90067
-0.332299	3.68265
-0.392314	-6.07956
-0.342291	3.72523
-0.40237	-6.26054
-0.352347	3.77066
-0.41235	-6.46997
-0.362335	3.79815
-0.422342	-6.70919
-0.372311	3.82507
-0.432345	-6.96864
-0.382322	3.83195
-0.442298	-7.25024
-0.392283	3.81629
-0.452374	-7.55131
-0.402294	3.77009
-0.462312	-7.86957
-0.412312	3.68952
-0.472326	-8.20634
-0.422365	3.57898
-0.482276	-8.57366
-0.432307	3.43255
-0.492325	-8.94079
-0.442348	3.25329
-0.502301	-9.31612
-0.452271	3.04901
-0.512243	-9.70273
-0.462316	2.82373
-0.522265	-10.0874
-0.472338	2.56886
-0.532264	-10.474
-0.482322	2.32201
-0.542241	-10.8583
-0.492306	2.04518
-0.55229	-11.236
-0.502309	1.78401
-0.562186	-11.5798
-0.512274	1.51578
-0.572269	-11.9089
-0.522258	1.26797
-0.58223	-12.2054
-0.532303	1.05357
-0.592298	-12.4399
-0.542252	0.853303
-0.602229	-12.6315
-0.552305	0.705344
-0.612338	-12.7671
-0.56227	0.610078
-0.62238	-12.8177
-0.572303	0.570559
-0.632329	-12.7816
-0.582226	0.586596
-0.642363	-12.6495
-0.592294	0.676134
-0.652351	-12.424
-0.602286	0.838793
-0.662319	-12.1195
-0.612331	1.03754
-0.67233	-11.74
-0.62233	1.29031
-0.68228	-11.3234
-0.632379	1.5551
-0.692332	-10.8736
-0.642397	1.80959
-0.70235	-10.4435
-0.652335	2.0259
-0.712373	-10.049
-0.662315	2.20784
-0.722299	-9.69585
-0.672322	2.33461
-0.732318	-9.39421
-0.682329	2.41059
-0.742302	-9.15175
-0.692309	2.46615
-0.752297	-8.94079
-0.702324	2.49058
-0.762319	-8.78271
-0.712308	2.49574
-0.772292	-8.65461
-0.722334	2.48715
-0.782291	-8.55781
-0.73236	2.45374
-0.792267	-8.49233
-0.742233	2.44209
-0.802266	-8.44002
-0.752305	2.41345
-0.812277	-8.41024
-0.762312	2.3789
-0.82233	-8.39114
-0.772311	2.33594
-0.832291	-8.37778
-0.782295	2.32468
-0.842336	-8.369
-0.792294	2.29451
-0.852286	-8.36098
-0.802286	2.26798
-0.862227	-8.35621
-0.812323	2.25328
-0.872315	-8.35583
-0.822269	2.23323
-0.882268	-8.33253
-0.832325	2.23018
-0.892248	-8.31669
-0.842317	2.22178
-0.902259	-8.29149
-0.852293	2.23113
-0.912296	-8.27182
-0.862273	2.23228
-0.922238	-8.24624
-0.872307	2.25251
-0.932253	-8.22448
-0.882325	2.26645
-0.94224	-8.1924
-0.892298	2.28993
-0.9524	-8.17923
-0.902255	2.31991
-0.962376	-8.15231
-0.912304	2.3621
-0.972345	-8.13685
-0.922257	2.39131
-0.982329	-8.11184
-0.932234	2.42166
-0.992363	-8.10095
-0.942225	2.45202
-1.00237	-8.09695
-0.952346	2.46996
-1.01229	-8.08301
-0.962311	2.49612
-1.02231	-8.08454
-0.972353	2.51139
-1.03232	-8.0769
-0.982344	2.54175
-1.04231	-8.08263
-0.992366	2.56141
-1.05233	-8.08625
-1.00233	2.58318
-1.06232	-8.08339
-1.01235	2.60074
-1.07229	-8.09141
-1.02234	2.60761
-1.08234	-8.09408
-1.03233	2.62308
-1.09229	-8.11317
-1.04233	2.61716
-1.10233	-8.14525
-1.05229	2.6288
-1.11231	-8.16338
-1.06232	2.6248
-1.12235	-8.21932
-1.07233	2.61926

File: CoPc_CNT_VFSWV_scans_04_3_C02.txt
Ewe/V	<I>/mA
-0.122312	-1.46598
-0.0723612	3.13473
-0.132299	-3.52608
-0.0823681	2.76512
-0.142325	-3.64063
-0.092352	2.73572
-0.152317	-3.65323
-0.102347	2.73495
-0.162305	-3.68855
-0.112335	2.74622
-0.172289	-3.71566
-0.122331	2.74736
-0.182284	-3.74849
-0.132368	2.76149
-0.192333	-3.7756
-0.142283	2.76187
-0.202321	-3.8029
-0.152309	2.77791
-0.212289	-3.82104
-0.162293	2.78631
-0.222288	-3.84834
-0.172292	2.78822
-0.232322	-3.86438
-0.182265	2.79318
-0.242352	-3.87641
-0.192237	2.79375
-0.252305	-3.90943
-0.202305	2.79948
-0.262251	-3.91955
-0.212255	2.80139
-0.272403	-3.96423
-0.222239	2.80196
-0.282368	-3.98084
-0.232276	2.81208
-0.292398	-4.01291
-0.242287	2.82583
-0.302378	-4.05205
-0.252286	2.83117
-0.312419	-4.0866
-0.262278	2.84683
-0.32243	-4.14197
-0.272399	2.85523
-0.332337	-4.19943
-0.282345	2.88501
-0.342409	-4.26854
-0.292382	2.9167
-0.352374	-4.36324
-0.302347	2.95794
-0.362339	-4.47149
-0.312335	3.01732
-0.37233	-4.61925
-0.32238	3.07173
-0.382375	-4.76301
-0.332372	3.14466
-0.392302	-4.9482
-0.34234	3.22656
-0.402347	-5.16317
-0.352324	3.32259
-0.412327	-5.39188
-0.362346	3.41804
-0.422346	-5.66565
-0.372288	3.50224
-0.432326	-5.95145
-0.382337	3.58471
-0.442317	-6.25959
-0.392356	3.64084
-0.452316	-6.59273
-0.402374	3.67272
-0.462327	-6.93218
-0.412312	3.67158
-0.472326	-7.28442
-0.4223	3.62977
-0.48228	-7.64601
-0.432333	3.56963
-0.492317	-7.99882
-0.442321	3.45642
-0.50224	-8.37034
-0.452313	3.32641
-0.512335	-8.72677
-0.462293	3.16088
-0.522231	-9.09161
-0.472284	2.98658
-0.532284	-9.45015
-0.482345	2.78936
-0.542321	-9.79207
-0.49231	2.58356
-0.552313	-10.1088
-0.502278	2.37756
-0.562308	-10.4036
-0.512323	2.19352
-0.572238	-10.6756
-0.522303	2.01368
-0.582283	-10.8894
-0.532264	1.84987
-0.592275	-11.0752
-0.542294	1.71337
-0.602251	-11.1899
-0.552339	1.61734
-0.612369	-11.2739
-0.5623	1.57458
-0.622361	-11.2379
-0.572319	1.57362
-0.632356	-11.1361
-0.582264	1.6309
-0.642355	-10.9553
-0.592294	1.74449
-0.652316	-10.6915
-0.602316	1.87832
-0.662365	-10.3669
-0.612338	2.03754
-0.672353	-9.99139
-0.622403	2.20803
-0.682329	-9.60307
-0.632348	2.37203
-0.692336	-9.20349
-0.642351	2.49975
-0.702309	-8.83559
-0.652373	2.60322
-0.712315	-8.49806
-0.66235	2.65859
-0.722341	-8.19221
-0.672391	2.68417
-0.732318	-7.94135
-0.682364	2.68188
-0.742294	-7.72333
-0.692325	2.67081
-0.752293	-7.53967
-0.702347	2.63415
-0.762277	-7.40106
-0.712331	2.59253
-0.772292	-7.28842
-0.72238	2.5574
-0.782295	-7.19564
-0.732333	2.50643
-0.792302	-7.14008
-0.742313	2.47646
-0.802289	-7.09045
-0.752328	2.4356
-0.812361	-7.06792
-0.762304	2.3999
-0.822337	-7.0389
-0.772315	2.36573
-0.832321	-7.02439
-0.782291	2.33384
-0.842332	-7.01809
-0.792294	2.3138
-0.852286	-7.00243
-0.802328	2.2886
-0.862311	-6.99079
-0.8123	2.27141
-0.872295	-6.97532
-0.822307	2.2548
-0.882272	-6.95814
-0.83231	2.24659
-0.892332	-6.93352
-0.842321	2.23419
-0.90232	-6.90545
-0.852358	2.24049
-0.912327	-6.87777
-0.862323	2.24659
-0.922261	-6.84779
-0.872345	2.26053
-0.932272	-6.81228
-0.882302	2.27199
-0.942252	-6.78632
-0.892282	2.2865
-0.952324	-6.7678
-0.902224	2.31093
-0.962392	-6.74508
-0.912288	2.35141
-0.972368	-6.72599
-0.922261	2.36496
-0.982359	-6.72943
-0.932264	2.39131
-0.992393	-6.71625
-0.942259	2.42204
-1.00236	-6.70404
-0.952289	2.43579
-1.01237	-6.70289
-0.9623	2.46615
-1.02234	-6.70136
-0.972379	2.48772
-1.03232	-6.709
-0.982401	2.51311
-1.04233	-6.70976
-0.992382	2.53659
-1.05232	-6.70938
-1.0024	2.55015
-1.06235	-6.71568
-1.01235	2.57306
-1.07234	-6.72542
-1.02239	2.59024
-1.08237	-6.73916
-1.03238	2.59482
-1.09232	-6.77277
-1.0424	2.59921
-1.10238	-6.80885
-1.05235	2.60303
-1.11231	-6.84608
-1.06237	2.60322
-1.12226	-6.89094
-1.07237	2.61811

File: CoPc_CNT_VFSWV_scans_05_4_C02.txt
Ewe/V	<I>/mA
-0.122312	-1.05353
-0.0723917	2.34549
-0.132299	-2.65589
-0.0823986	2.12937
-0.142348	-2.71278
-0.0923368	2.11677
-0.152355	-2.73989
-0.102374	2.10914
-0.162301	-2.75841
-0.112362	2.11811
-0.172296	-2.78285
-0.122369	2.12097
-0.18233	-2.81721
-0.132357	2.13262
-0.192337	-2.8407
-0.142318	2.15095
-0.202347	-2.86017
-0.152332	2.15305
-0.212282	-2.88537
-0.162343	2.16698
-0.2223	-2.90962
-0.172319	2.17577
-0.232295	-2.9289
-0.182292	2.17844
-0.242356	-2.9499
-0.192279	2.18741
-0.252294	-2.96536
-0.202321	2.18741
-0.262293	-2.9919
-0.21232	2.19448
-0.272395	-3.01691
-0.222323	2.20536
-0.282391	-3.03887
-0.232341	2.2149
-0.292424	-3.07304
-0.242264	2.22426
-0.30245	-3.11275
-0.25229	2.23094
-0.312404	-3.15876
-0.262274	2.25347
-0.322399	-3.22119
-0.272361	2.27294
-0.332326	-3.27197
-0.282398	2.3054
-0.34234	-3.3512
-0.292378	2.34931
-0.352374	-3.44971
-0.302416	2.38615
-0.362373	-3.55758
-0.312369	2.46424
-0.372399	-3.70936
-0.322376	2.54461
-0.382402	-3.86381
-0.332379	2.63167
-0.392356	-4.06942
-0.342398	2.73934
-0.402374	-4.29088
-0.35232	2.86898
-0.412331	-4.54155
-0.362335	3.00051
-0.422372	-4.83174
-0.372391	3.12766
-0.432307	-5.13568
-0.382364	3.27639
-0.44231	-5.46768
-0.392371	3.39666
-0.452351	-5.82239
-0.402336	3.49136
-0.46235	-6.17368
-0.41235	3.56161
-0.4723	-6.54863
-0.422307	3.59063
-0.482287	-6.91041
-0.432368	3.58051
-0.49231	-7.27678
-0.442332	3.53259
-0.502343	-7.6315
-0.452332	3.46253
-0.512323	-7.98278
-0.462369	3.35237
-0.522281	-8.33177
-0.472311	3.23591
-0.532291	-8.6548
-0.482318	3.08853
-0.542287	-8.96484
-0.49229	2.93217
-0.55232	-9.25446
-0.502328	2.77657
-0.562224	-9.51315
-0.512289	2.62651
-0.572261	-9.73785
-0.5223	2.48906
-0.582249	-9.93469
-0.532345	2.36763
-0.59229	-10.0632
-0.542298	2.2844
-0.602282	-10.1285
-0.552293	2.21987
-0.612342	-10.1558
-0.562335	2.19505
-0.622368	-10.0868
-0.572269	2.21796
-0.632356	-9.94538
-0.582325	2.28172
-0.642374	-9.72487
-0.592287	2.37164
-0.652347	-9.44022
-0.602301	2.47856
-0.66235	-9.12426
-0.612426	2.56638
-0.672361	-8.75426
-0.622357	2.6752
-0.682356	-8.38217
-0.632348	2.76359
-0.692382	-8.01886
-0.642332	2.80788
-0.702324	-7.67369
-0.652412	2.81666
-0.712319	-7.36613
-0.662373	2.79185
-0.722368	-7.09216
-0.672341	2.76512
-0.732413	-6.84512
-0.682345	2.71052
-0.742313	-6.64218
-0.69234	2.64694
-0.752331	-6.47627
-0.702354	2.58279
-0.762327	-6.34321
-0.712338	2.52247
-0.772303	-6.23019
-0.722292	2.46844
-0.782302	-6.15859
-0.732329	2.41403
-0.792324	-6.09979
-0.742298	2.36706
-0.802328	-6.06352
-0.752316	2.32334
-0.812353	-6.03259
-0.762308	2.2865
-0.822322	-6.00472
-0.772334	2.2634
-0.832268	-5.99307
-0.782356	2.22464
-0.842336	-5.98047
-0.792321	2.20708
-0.852293	-5.96673
-0.802266	2.17958
-0.862308	-5.94744
-0.812331	2.16469
-0.872315	-5.91117
-0.822341	2.14369
-0.882241	-5.89819
-0.832314	2.14159
-0.892351	-5.86554
-0.842366	2.13586
-0.902297	-5.83709
-0.852297	2.1309
-0.912308	-5.7991
-0.862254	2.12422
-0.922295	-5.77027
-0.872284	2.12899
-0.932291	-5.73782
-0.882276	2.13873
-0.942313	-5.70861
-0.892301	2.15114
-0.952388	-5.69066
-0.90227	2.17137
-0.962365	-5.66985
-0.912296	2.18531
-0.972402	-5.65076
-0.922284	2.20841
-0.982352	-5.64255
-0.932222	2.23419
-0.992385	-5.63549
-0.942244	2.27084
-1.00233	-5.63873
-0.95235	2.28153
-1.01241	-5.64293
-0.962388	2.30807
-1.0223	-5.6374
-0.972368	2.3327
-1.0324	-5.65
-0.982348	2.3537
-1.04237	-5.64809
-0.992363	2.37966
-1.05233	-5.66145
-1.00235	2.39131
-1.0624	-5.66985
-1.01236	2.40944
-1.07236	-5.68379
-1.02237	2.4209
-1.08237	-5.70575
-1.03229	2.43197
-1.09238	-5.73496
-1.04244	2.43885
-1.10232	-5.77314
-1.05232	2.46061
-1.11232	-5.81361
-1.06231	2.45756
-1.12235	-5.8726
-1.07234	2.46901

File: CoPc_CNT_VFSWV_scans_06_5_C02.txt
Ewe/V	<I>/mA
-0.122331	-0.779724
-0.0723879	1.73552
-0.132337	-1.99361
-0.0823451	1.60627
-0.142306	-2.03886
-0.0923405	1.58718
-0.152294	-2.06387
-0.102366	1.59558
-0.162312	-2.08277
-0.112366	1.59825
-0.172338	-2.10568
-0.122315	1.61123
-0.182322	-2.12515
-0.132295	1.61524
-0.19231	-2.15971
-0.142356	1.62211
-0.202279	-2.16925
-0.15234	1.63624
-0.212278	-2.19846
-0.162324	1.65037
-0.222357	-2.21908
-0.172346	1.65514
-0.232337	-2.23626
-0.182395	1.66984
-0.242329	-2.24753
-0.192291	1.66946
-0.252324	-2.27177
-0.202271	1.67423
-0.262282	-2.29354
-0.212335	1.68836
-0.272445	-2.31396
-0.222285	1.69333
-0.282444	-2.34336
-0.232292	1.70383
-0.292447	-2.37277
-0.24234	1.72177
-0.302374	-2.41152
-0.252279	1.72349
-0.312362	-2.46841
-0.262285	1.73991
-0.322437	-2.50946
-0.272376	1.76893
-0.332352	-2.57284
-0.282364	1.80138
-0.342348	-2.65284
-0.292432	1.84758
-0.352416	-2.73932
-0.30237	1.90314
-0.362415	-2.87315
-0.312335	1.96843
-0.372368	-3.0024
-0.322365	2.04518
-0.382433	-3.1727
-0.332303	2.14102
-0.392352	-3.37048
-0.342348	2.26454
-0.402351	-3.60493
-0.352355	2.39188
-0.412369	-3.87259
-0.362354	2.56542
-0.422349	-4.16564
-0.372346	2.72197
-0.432341	-4.4879
-0.382326	2.91231
-0.442306	-4.82219
-0.392352	3.08452
-0.452355	-5.19009
-0.402316	3.24374
-0.462327	-5.55741
-0.4124	3.36058
-0.47233	-5.94802
-0.422349	3.45012
-0.482307	-6.31171
-0.432375	3.50567
-0.492271	-6.67674
-0.442317	3.52362
-0.502358	-7.04024
-0.452343	3.4862
-0.51235	-7.39075
-0.462346	3.4274
-0.522292	-7.7281
-0.472277	3.34359
-0.532337	-8.03204
-0.482356	3.25959
-0.542309	-8.31879
-0.492348	3.1479
-0.552324	-8.59447
-0.502309	3.02953
-0.562323	-8.8186
-0.512319	2.91021
-0.572223	-9.00761
-0.522342	2.8138
-0.582226	-9.16454
-0.532337	2.71338
-0.592241	-9.27011
-0.542275	2.64331
-0.602297	-9.30448
-0.552301	2.60399
-0.612331	-9.30009
-0.562274	2.60265
-0.622376	-9.20119
-0.572338	2.61926
-0.632387	-9.0351
-0.58228	2.6647
-0.642374	-8.80447
-0.592329	2.72884
-0.652339	-8.51524
-0.602278	2.79089
-0.662384	-8.19355
-0.612392	2.82564
-0.672387	-7.83406
-0.622357	2.88807
-0.682367	-7.48048
-0.632367	2.89933
-0.692374	-7.12157
-0.642401	2.87718
-0.702381	-6.7888
-0.652354	2.83308
-0.712331	-6.49269
-0.662365	2.77104
-0.72233	-6.2216
-0.672353	2.69562
-0.732325	-5.99765
-0.682394	2.60322
-0.742328	-5.80368
-0.692328	2.52208
-0.752309	-5.64542
-0.702335	2.44247
-0.762323	-5.51388
-0.712342	2.36229
-0.772318	-5.42453
-0.722307	2.29929
-0.782341	-5.34129
-0.732333	2.23934
-0.792294	-5.28879
-0.742313	2.18951
-0.802331	-5.24812
-0.75232	2.14407
-0.812289	-5.2256
-0.762277	2.10417
-0.822326	-5.19562
-0.772311	2.07935
-0.832314	-5.18226
-0.782291	2.04976
-0.842359	-5.17042
-0.792302	2.02017
-0.852354	-5.15019
-0.802297	1.99497
-0.862296	-5.13052
-0.812285	1.98352
-0.87233	-5.09444
-0.822292	1.96748
-0.882295	-5.0742
-0.832245	1.95068
-0.892347	-5.05225
-0.842313	1.94132
-0.902282	-5.01349
-0.852263	1.92338
-0.912334	-4.97798
-0.862277	1.92548
-0.922322	-4.94132
-0.872303	1.92204
-0.932321	-4.9041
-0.882283	1.92051
-0.942275	-4.87107
-0.892279	1.92624
-0.952377	-4.86668
-0.902316	1.95201
-0.962372	-4.83346
-0.912288	1.96328
-0.972387	-4.81456
-0.922288	1.97893
-0.982359	-4.80921
-0.932268	2.00852
-0.992393	-4.80539
-0.942294	2.0322
-1.00242	-4.81341
-0.952427	2.04709
-1.01239	-4.80425
-0.962327	2.07019
-1.02237	-4.81704
-0.972345	2.09692
-1.03233	-4.82525
-0.982401	2.12307
-1.04234	-4.83098
-0.992332	2.14522
-1.05235	-4.83938
-1.00239	2.16011
-1.0624	-4.85312
-1.01241	2.17367
-1.0724	-4.87813
-1.02236	2.18245
-1.08236	-4.90677
-1.0324	2.18951
-1.09234	-4.93789
-1.04234	2.20307
-1.1023	-4.98065
-1.05234	2.21471
-1.11231	-5.0217
-1.06237	2.2317
-1.12233	-5.0679
-1.07234	2.24965