Folder: ElectrochemLabUtils/VFSWV_data_prep/Example_data/CoPc_VFSWV_txt_data (part 3)

File: CoPc_CNT_VFSWV_scans_13_12_C02.txt
Ewe/V	<I>/mA
-0.122426	-0.122139
-0.0724454	0.299397
-0.132418	-0.347293
-0.0824409	0.284633
-0.142409	-0.354293
-0.0924324	0.283869
-0.152336	-0.364857
-0.10242	0.276615
-0.162404	-0.372239
-0.112404	0.278906
-0.172388	-0.388658
-0.122445	0.282342
-0.182425	-0.401004
-0.13238	0.285397
-0.192448	-0.404822
-0.142387	0.291124
-0.202397	-0.40444
-0.152439	0.304488
-0.212404	-0.423659
-0.162416	0.298888
-0.222407	-0.432823
-0.172407	0.301815
-0.232429	-0.440841
-0.182422	0.306143
-0.242394	-0.455478
-0.192406	0.312888
-0.252386	-0.453823
-0.202382	0.320652
-0.262389	-0.46986
-0.212374	0.319252
-0.272392	-0.486788
-0.222419	0.322943
-0.28238	-0.493024
-0.232399	0.329052
-0.292379	-0.510716
-0.242383	0.340253
-0.302344	-0.539353
-0.252367	0.342162
-0.312335	-0.552462
-0.262351	0.358326
-0.322369	-0.582245
-0.272342	0.356671
-0.33236	-0.616737
-0.282395	0.371944
-0.342394	-0.661665
-0.292364	0.391163
-0.352313	-0.709903
-0.30234	0.420309
-0.362385	-0.773923
-0.312362	0.447801
-0.372369	-0.861234
-0.322384	0.48802
-0.382349	-0.967382
-0.332349	0.540713
-0.392321	-1.09466
-0.342344	0.612751
-0.402294	-1.25719
-0.352344	0.707826
-0.412366	-1.4579
-0.362358	0.819575
-0.422311	-1.69947
-0.372327	0.986561
-0.432421	-1.99145
-0.382315	1.17493
-0.442398	-2.30811
-0.392283	1.41306
-0.452412	-2.66779
-0.402374	1.68073
-0.462411	-3.04746
-0.412305	1.97053
-0.472376	-3.44176
-0.422296	2.26289
-0.482414	-3.83708
-0.432406	2.52597
-0.492394	-4.21903
-0.442402	2.76117
-0.502389	-4.59233
-0.45242	2.95361
-0.512377	-4.92898
-0.462377	3.10927
-0.522388	-5.24666
-0.472399	3.21351
-0.532394	-5.53214
-0.482395	3.29026
-0.54239	-5.76951
-0.49244	3.33417
-0.552412	-5.97481
-0.502401	3.3567
-0.562362	-6.12512
-0.512438	3.36242
-0.572361	-6.24527
-0.522365	3.36332
-0.582394	-6.30254
-0.532429	3.33481
-0.59234	-6.29325
-0.54239	3.30375
-0.602374	-6.23254
-0.552439	3.28097
-0.6124	-6.11914
-0.562388	3.22891
-0.622369	-5.94044
-0.572388	3.17787
-0.632391	-5.70307
-0.582368	3.11233
-0.642367	-5.40728
-0.592401	3.01331
-0.65237	-5.08273
-0.602404	2.88679
-0.662335	-4.74799
-0.612407	2.73788
-0.672345	-4.39187
-0.622357	2.57726
-0.682379	-4.05688
-0.632391	2.40747
-0.692352	-3.73589
-0.642413	2.22241
-0.702339	-3.4611
-0.652362	2.0385
-0.712388	-3.21113
-0.662327	1.87508
-0.722334	-3.00711
-0.672368	1.72413
-0.732421	-2.84063
-0.682337	1.58565
-0.742313	-2.71807
-0.692348	1.46716
-0.752339	-2.60517
-0.702362	1.37857
-0.762304	-2.54179
-0.712358	1.2961
-0.772296	-2.48082
-0.72233	1.23589
-0.782284	-2.44493
-0.732375	1.18562
-0.792306	-2.41973
-0.742302	1.12924
-0.802328	-2.40777
-0.752274	1.10085
-0.812285	-2.38129
-0.7623	1.07515
-0.822322	-2.3706
-0.772315	1.05364
-0.832322	-2.35737
-0.782261	1.0306
-0.842451	-2.34616
-0.792306	1.02016
-0.852393	-2.32529
-0.802316	0.996488
-0.862403	-2.30811
-0.812335	0.988216
-0.872437	-2.27196
-0.822315	0.958433
-0.882421	-2.24282
-0.832299	0.940487
-0.892405	-2.19712
-0.842401	0.91605
-0.902408	-2.15258
-0.852393	0.903322
-0.912399	-2.11656
-0.862415	0.877613
-0.922414	-2.07468
-0.872368	0.864758
-0.932406	-2.0491
-0.88239	0.849994
-0.942405	-2.01932
-0.892412	0.829375
-0.952362	-1.9931
-0.902343	0.826193
-0.962346	-1.97477
-0.912415	0.824157
-0.972349	-1.96077
-0.922399	0.831029
-0.982409	-1.96141
-0.932409	0.83803
-0.992447	-1.94881
-0.942416	0.846557
-1.00235	-1.95046
-0.952351	0.858903
-1.01239	-1.96115
-0.962335	0.876849
-1.02238	-1.97185
-0.97238	0.889322
-1.0324	-1.97248
-0.982417	0.907395
-1.04236	-1.98063
-0.992374	0.916432
-1.05234	-1.99972
-1.0024	0.928396
-1.06231	-2.0211
-1.01237	0.94036
-1.07233	-2.04618
-1.02237	0.95856
-1.08236	-2.07227
-1.03234	0.96696
-1.09238	-2.11236
-1.04234	0.984143
-1.10234	-2.14176
-1.05241	1.00565
-1.11235	-2.18529
-1.0623	1.02983
-1.12234	-2.22729
-1.07233	1.05211

File: CoPc_CNT_VFSWV_scans_14_13_C02.txt
Ewe/V	<I>/mA
-0.122449	-0.0828866
-0.0724492	0.25765
-0.132399	-0.253745
-0.0824408	0.244541
-0.142444	-0.264436
-0.0924668	0.241486
-0.15242	-0.277291
-0.102397	0.243396
-0.1624	-0.281109
-0.112484	0.240341
-0.172411	-0.291673
-0.122434	0.244159
-0.182406	-0.297273
-0.13241	0.246068
-0.192444	-0.311528
-0.142398	0.241614
-0.202363	-0.312928
-0.152435	0.253323
-0.212396	-0.333547
-0.162416	0.253069
-0.222388	-0.328838
-0.172434	0.259178
-0.232402	-0.336475
-0.182399	0.266433
-0.242398	-0.346529
-0.192436	0.267196
-0.252424	-0.352384
-0.202386	0.263251
-0.262431	-0.36333
-0.2124	0.271651
-0.272308	-0.383821
-0.222384	0.270633
-0.282376	-0.389421
-0.232399	0.281451
-0.292402	-0.407113
-0.242367	0.284378
-0.302386	-0.425186
-0.252347	0.294051
-0.312347	-0.444405
-0.262343	0.29227
-0.322422	-0.465278
-0.272396	0.301433
-0.332402	-0.496079
-0.282372	0.319252
-0.34236	-0.527771
-0.292371	0.335289
-0.352332	-0.576645
-0.30242	0.355653
-0.362358	-0.627046
-0.312331	0.378817
-0.372342	-0.711557
-0.322365	0.413309
-0.382368	-0.799123
-0.332353	0.455056
-0.39234	-0.921308
-0.342318	0.51513
-0.402328	-1.0706
-0.352328	0.58895
-0.412259	-1.25974
-0.362339	0.697899
-0.4223	-1.48069
-0.372334	0.840702
-0.432448	-1.75166
-0.382353	1.01482
-0.442417	-2.05432
-0.39236	1.24099
-0.45245	-2.40229
-0.402363	1.50127
-0.462411	-2.77369
-0.412339	1.787
-0.472434	-3.15933
-0.422327	2.0791
-0.482459	-3.55223
-0.432421	2.35885
-0.492421	-3.93966
-0.442421	2.6106
-0.50242	-4.30138
-0.452385	2.82876
-0.512415	-4.65546
-0.462423	2.99447
-0.522395	-4.95774
-0.472388	3.1276
-0.532452	-5.24742
-0.482368	3.22089
-0.542428	-5.48479
-0.492382	3.28491
-0.552427	-5.6808
-0.502443	3.32093
-0.562434	-5.83226
-0.512411	3.33226
-0.572369	-5.93637
-0.522349	3.32691
-0.582417	-5.98766
-0.532349	3.31241
-0.59242	-5.98575
-0.542405	3.2858
-0.602416	-5.91028
-0.552408	3.2522
-0.612354	-5.78593
-0.562373	3.20091
-0.622368	-5.58751
-0.572388	3.14046
-0.632329	-5.34543
-0.582353	3.04398
-0.642371	-5.05766
-0.59239	2.93109
-0.652362	-4.73412
-0.602366	2.79897
-0.662346	-4.39366
-0.612369	2.62651
-0.67238	-4.03817
-0.622422	2.46093
-0.682372	-3.70649
-0.632398	2.27281
-0.692344	-3.39441
-0.642378	2.08839
-0.702408	-3.1354
-0.652324	1.9167
-0.712358	-2.89842
-0.662327	1.74767
-0.722345	-2.70979
-0.672407	1.59354
-0.732348	-2.55121
-0.682402	1.45634
-0.742344	-2.43208
-0.692359	1.34446
-0.752301	-2.33789
-0.70237	1.2541
-0.762339	-2.28062
-0.712346	1.17493
-0.772361	-2.23569
-0.72233	1.11346
-0.782341	-2.19585
-0.732348	1.07044
-0.792317	-2.17141
-0.742313	1.03327
-0.802358	-2.15601
-0.752347	0.999416
-0.8123	-2.14329
-0.762304	0.980579
-0.822315	-2.13501
-0.772334	0.954869
-0.832337	-2.11249
-0.782337	0.941505
-0.842439	-2.10039
-0.792351	0.926232
-0.852419	-2.08525
-0.802343	0.911723
-0.862415	-2.05305
-0.812327	0.883849
-0.872448	-2.02937
-0.822357	0.866921
-0.882421	-1.99565
-0.832402	0.851648
-0.892447	-1.95543
-0.84242	0.824029
-0.902377	-1.91903
-0.852469	0.806211
-0.912419	-1.88364
-0.86243	0.787119
-0.922353	-1.8489
-0.872433	0.769555
-0.932428	-1.80142
-0.882413	0.754537
-0.942409	-1.78182
-0.892424	0.744991
-0.952381	-1.75726
-0.902385	0.740791
-0.962411	-1.74428
-0.912434	0.731754
-0.972414	-1.72748
-0.922425	0.735827
-0.982448	-1.72213
-0.932444	0.736845
-0.99237	-1.72378
-0.942382	0.749445
-1.00243	-1.71742
-0.952385	0.762555
-1.01238	-1.72773
-0.96235	0.770446
-1.02238	-1.72506
-0.972353	0.789665
-1.03238	-1.73218
-0.982356	0.798574
-1.04239	-1.74771
-0.992355	0.818429
-1.05234	-1.77177
-1.00237	0.824793
-1.0624	-1.79111
-1.01237	0.838539
-1.07238	-1.80499
-1.02237	0.846557
-1.08237	-1.83515
-1.03237	0.864758
-1.09236	-1.86913
-1.04242	0.869212
-1.10234	-1.90337
-1.05236	0.892886
-1.11237	-1.95072
-1.06238	0.915923
-1.12239	-1.97936
-1.07237	0.928778

File: CoPc_CNT_VFSWV_scans_15_14_C02.txt
Ewe/V	<I>/mA
-0.122419	-0.0651316
-0.0723881	0.212595
-0.132426	-0.192525
-0.0824103	0.199485
-0.142344	-0.205635
-0.0924362	0.195922
-0.152359	-0.208689
-0.10239	0.193885
-0.162389	-0.229435
-0.112397	0.190194
-0.172342	-0.220144
-0.122403	0.203176
-0.182403	-0.237326
-0.132433	0.201013
-0.192402	-0.240381
-0.14239	0.207886
-0.202386	-0.258327
-0.152401	0.204704
-0.212393	-0.255909
-0.162385	0.209031
-0.22238	-0.264945
-0.172411	0.211958
-0.232349	-0.268255
-0.182414	0.214249
-0.242394	-0.275891
-0.192387	0.215649
-0.252397	-0.290273
-0.20239	0.224177
-0.262366	-0.29651
-0.212358	0.225322
-0.272357	-0.306437
-0.222323	0.222268
-0.282414	-0.313565
-0.232364	0.225704
-0.29236	-0.330493
-0.24236	0.232577
-0.302378	-0.342838
-0.252367	0.250141
-0.312373	-0.362057
-0.262373	0.250778
-0.322376	-0.381276
-0.272361	0.254087
-0.332357	-0.404313
-0.282322	0.267833
-0.342325	-0.441859
-0.292325	0.274069
-0.352393	-0.478133
-0.302378	0.291633
-0.362339	-0.532353
-0.3124	0.308434
-0.372369	-0.593318
-0.322384	0.339362
-0.382376	-0.676556
-0.332353	0.377926
-0.392337	-0.790469
-0.342318	0.420182
-0.402305	-0.926781
-0.352324	0.490948
-0.412354	-1.09326
-0.362358	0.584114
-0.422323	-1.29805
-0.372357	0.706172
-0.432395	-1.56202
-0.382314	0.87074
-0.44247	-1.84164
-0.392291	1.07604
-0.452412	-2.17536
-0.40237	1.3269
-0.462415	-2.54293
-0.412328	1.60754
-0.472403	-2.91763
-0.422296	1.90028
-0.482425	-3.30672
-0.432444	2.1855
-0.492379	-3.68511
-0.442421	2.46042
-0.502412	-4.05383
-0.452401	2.68353
-0.512419	-4.38793
-0.462404	2.87636
-0.522407	-4.70485
-0.472449	3.02578
-0.532448	-4.97913
-0.482421	3.13205
-0.542417	-5.23368
-0.492417	3.19646
-0.552366	-5.42383
-0.502401	3.24979
-0.562396	-5.57007
-0.512415	3.26735
-0.57241	-5.66909
-0.522376	3.27626
-0.582402	-5.7186
-0.532402	3.26455
-0.59242	-5.70027
-0.54242	3.24049
-0.602412	-5.63371
-0.552389	3.19697
-0.612388	-5.49218
-0.562423	3.14211
-0.622376	-5.29197
-0.572353	3.06218
-0.632383	-5.04582
-0.582368	2.96609
-0.642432	-4.74087
-0.592413	2.83423
-0.652378	-4.41542
-0.602404	2.69193
-0.662392	-4.07279
-0.612384	2.51502
-0.672407	-3.73258
-0.622368	2.32945
-0.682371	-3.40332
-0.632341	2.14299
-0.692378	-3.10957
-0.642401	1.95055
-0.702351	-2.84585
-0.652309	1.77453
-0.71235	-2.6207
-0.662308	1.60894
-0.722391	-2.44455
-0.672372	1.45608
-0.732326	-2.30811
-0.682291	1.33008
-0.742294	-2.204
-0.692378	1.22011
-0.752339	-2.11783
-0.702339	1.13929
-0.762258	-2.06285
-0.712297	1.06293
-0.772311	-2.01347
-0.722368	1.00667
-0.782306	-1.98177
-0.732318	0.973197
-0.79239	-1.95925
-0.742336	0.933869
-0.802297	-1.94677
-0.752252	0.903831
-0.812331	-1.93595
-0.762285	0.880031
-0.822296	-1.92208
-0.772319	0.853176
-0.832352	-1.91406
-0.782303	0.845284
-0.842413	-1.8951
-0.792271	0.831284
-0.852427	-1.87626
-0.802301	0.816138
-0.862377	-1.85615
-0.812254	0.797556
-0.872475	-1.82942
-0.822319	0.778719
-0.882413	-1.79442
-0.832314	0.758355
-0.892409	-1.75662
-0.84242	0.746391
-0.902446	-1.7178
-0.852419	0.706299
-0.912396	-1.68255
-0.862411	0.696244
-0.922406	-1.65086
-0.872383	0.68148
-0.932413	-1.62349
-0.882409	0.66277
-0.942359	-1.58913
-0.892405	0.657298
-0.952446	-1.57258
-0.902419	0.641515
-0.962399	-1.55336
-0.912434	0.645079
-0.972372	-1.54089
-0.922414	0.639479
-0.98244	-1.54013
-0.932448	0.645461
-0.992389	-1.526
-0.942393	0.647497
-1.00238	-1.52562
-0.952362	0.658698
-1.0124	-1.53402
-0.96238	0.671425
-1.02234	-1.5358
-0.972372	0.690262
-1.03238	-1.54165
-0.982417	0.704517
-1.04239	-1.5568
-0.992359	0.714572
-1.05237	-1.57462
-1.00232	0.722208
-1.06237	-1.59587
-1.01241	0.729463
-1.07232	-1.61356
-1.02233	0.748427
-1.08233	-1.64818
-1.03241	0.750336
-1.09236	-1.6716
-1.0424	0.767264
-1.10233	-1.70037
-1.05233	0.785719
-1.11228	-1.73791
-1.06235	0.79921
-1.12234	-1.78399
-1.07235	0.829629

File: CoPc_CNT_VFSWV_scans_16_15_C02.txt
Ewe/V	<I>/mA
-0.122442	-0.0403128
-0.072476	0.191085
-0.132433	-0.152306
-0.0824675	0.174921
-0.142383	-0.160833
-0.0924859	0.170212
-0.152435	-0.163888
-0.102432	0.166648
-0.162439	-0.163761
-0.112435	0.168048
-0.172361	-0.174197
-0.122438	0.16423
-0.182437	-0.190871
-0.132429	0.171103
-0.192425	-0.191889
-0.142379	0.181285
-0.202386	-0.194816
-0.152401	0.178612
-0.212404	-0.202962
-0.162408	0.181158
-0.222407	-0.220526
-0.172411	0.184849
-0.232418	-0.218999
-0.182425	0.187649
-0.242375	-0.226635
-0.192425	0.190576
-0.252351	-0.234908
-0.202363	0.181794
-0.262423	-0.243945
-0.2124	0.195922
-0.272373	-0.249672
-0.222415	0.199358
-0.282425	-0.257945
-0.232376	0.194649
-0.292364	-0.2694
-0.242421	0.201649
-0.302386	-0.28951
-0.25237	0.202285
-0.312385	-0.297655
-0.262366	0.208395
-0.322376	-0.319929
-0.272357	0.218831
-0.332353	-0.333547
-0.282368	0.228122
-0.342348	-0.36753
-0.292402	0.234359
-0.35234	-0.392858
-0.302344	0.246705
-0.362366	-0.444914
-0.312389	0.261723
-0.372338	-0.506643
-0.322369	0.280051
-0.382341	-0.57639
-0.33236	0.315816
-0.392356	-0.676302
-0.342348	0.361126
-0.402397	-0.798614
-0.352313	0.419418
-0.412324	-0.943709
-0.362366	0.496166
-0.422346	-1.15244
-0.372315	0.607023
-0.432433	-1.38052
-0.382341	0.749827
-0.442432	-1.65429
-0.392325	0.939851
-0.45245	-1.97159
-0.40234	1.18117
-0.462442	-2.32224
-0.412347	1.44234
-0.472418	-2.68943
-0.422369	1.73685
-0.482402	-3.06528
-0.432429	2.02908
-0.492356	-3.44036
-0.442398	2.29891
-0.502427	-3.82117
-0.45237	2.54913
-0.5124	-4.15489
-0.46243	2.75315
-0.522395	-4.46379
-0.472422	2.91378
-0.532391	-4.75219
-0.482425	3.03354
-0.542398	-4.98995
-0.492447	3.12124
-0.552355	-5.17017
-0.502424	3.17546
-0.562404	-5.31743
-0.512362	3.20231
-0.572388	-5.41823
-0.522376	3.21733
-0.582345	-5.45107
-0.532387	3.20868
-0.592409	-5.44165
-0.542401	3.17317
-0.60237	-5.35714
-0.552401	3.12989
-0.612392	-5.2095
-0.562407	3.06625
-0.622437	-5.00878
-0.57241	2.98531
-0.632333	-4.74214
-0.582402	2.87878
-0.642333	-4.44482
-0.592386	2.74488
-0.652397	-4.11568
-0.602404	2.58171
-0.662377	-3.777
-0.612343	2.40404
-0.672407	-3.44201
-0.622384	2.20752
-0.682375	-3.11924
-0.632371	2.01979
-0.692397	-2.83974
-0.64234	1.81666
-0.702332	-2.59728
-0.652374	1.64025
-0.712331	-2.38346
-0.662362	1.48192
-0.722357	-2.22627
-0.672406	1.33428
-0.732356	-2.0897
-0.68236	1.21769
-0.742329	-1.99628
-0.692378	1.11435
-0.752328	-1.92259
-0.702332	1.02983
-0.762327	-1.86646
-0.712339	0.967979
-0.772284	-1.82777
-0.722334	0.91185
-0.78236	-1.80295
-0.732291	0.87074
-0.792344	-1.7915
-0.74231	0.84223
-0.802339	-1.7789
-0.752332	0.814356
-0.812339	-1.76031
-0.7623	0.783683
-0.822349	-1.75879
-0.772322	0.772482
-0.832291	-1.7388
-0.782322	0.765355
-0.842477	-1.72938
-0.79234	0.747536
-0.852419	-1.7094
-0.802297	0.729718
-0.862419	-1.69387
-0.812358	0.719154
-0.872425	-1.65633
-0.822307	0.684916
-0.88239	-1.63507
-0.832348	0.677662
-0.892432	-1.59384
-0.842458	0.658188
-0.902416	-1.55871
-0.852465	0.63057
-0.912373	-1.52052
-0.862464	0.618987
-0.922364	-1.48743
-0.872433	0.591878
-0.932375	-1.4532
-0.882436	0.584114
-0.942393	-1.42698
-0.892428	0.569986
-0.952343	-1.41323
-0.902431	0.562859
-0.962426	-1.39376
-0.912438	0.559677
-0.972368	-1.38587
-0.922406	0.555477
-0.982425	-1.37556
-0.932463	0.554713
-0.992367	-1.3627
-0.94242	0.573041
-1.00241	-1.36932
-0.95245	0.572277
-1.01243	-1.37963
-0.962388	0.584114
-1.02239	-1.37988
-0.972402	0.593023
-1.03237	-1.38548
-0.982436	0.610969
-1.04239	-1.39134
-0.992332	0.622424
-1.05235	-1.40814
-1.00238	0.635661
-1.0624	-1.4243
-1.01241	0.636551
-1.07231	-1.45141
-1.02237	0.649916
-1.08237	-1.47
-1.03242	0.656025
-1.09237	-1.49634
-1.04236	0.671171
-1.10235	-1.53338
-1.05236	0.689753
-1.11237	-1.56685
-1.06228	0.713808
-1.12242	-1.60835
-1.07239	0.732772

File: CoPc_CNT_VFSWV_scans_17_16_C02.txt
Ewe/V	<I>/mA
-0.122388	-0.026796
-0.0723843	0.155702
-0.132399	-0.124942
-0.0824485	0.139538
-0.142432	-0.136524
-0.0924706	0.142466
-0.152401	-0.150397
-0.102386	0.125792
-0.162389	-0.151033
-0.112408	0.138647
-0.172388	-0.150651
-0.122438	0.135211
-0.182334	-0.153197
-0.13241	0.142211
-0.192337	-0.165034
-0.142451	0.140684
-0.202382	-0.172925
-0.152386	0.143993
-0.212351	-0.170379
-0.162358	0.148702
-0.222357	-0.183361
-0.172373	0.149466
-0.23238	-0.188707
-0.182399	0.152266
-0.242383	-0.197744
-0.192413	0.15392
-0.252374	-0.195834
-0.20239	0.161175
-0.262373	-0.210344
-0.212351	0.152266
-0.272373	-0.221162
-0.222335	0.156593
-0.282376	-0.224344
-0.232399	0.162193
-0.292367	-0.22829
-0.242371	0.160666
-0.302351	-0.244072
-0.252401	0.166266
-0.3124	-0.251327
-0.262392	0.168939
-0.322415	-0.272836
-0.272392	0.178103
-0.332353	-0.289637
-0.28238	0.180903
-0.342329	-0.31051
-0.292379	0.199358
-0.352374	-0.342838
-0.30237	0.209413
-0.362389	-0.385985
-0.312331	0.209795
-0.372327	-0.440586
-0.322384	0.239323
-0.382356	-0.498243
-0.332357	0.259432
-0.39231	-0.580336
-0.34234	0.298761
-0.402386	-0.68992
-0.352336	0.354635
-0.412362	-0.832215
-0.362362	0.413946
-0.422331	-1.02122
-0.372342	0.50393
-0.432433	-1.24128
-0.382307	0.643424
-0.442447	-1.49367
-0.392344	0.810029
-0.452427	-1.79366
-0.402351	1.03073
-0.4624	-2.14112
-0.412324	1.28171
-0.472449	-2.50221
-0.422327	1.56007
-0.482448	-2.87462
-0.432437	1.85637
-0.492401	-3.2301
-0.442417	2.14681
-0.50242	-3.60314
-0.452385	2.40442
-0.512377	-3.9445
-0.462427	2.61557
-0.522437	-4.25518
-0.472346	2.7977
-0.53241	-4.5222
-0.482437	2.92994
-0.542394	-4.76034
-0.492413	3.01572
-0.552397	-4.95787
-0.502435	3.08458
-0.562396	-5.09253
-0.512366	3.13116
-0.572441	-5.18239
-0.522403	3.13842
-0.582364	-5.22159
-0.532372	3.14287
-0.592417	-5.18786
-0.542401	3.11335
-0.602359	-5.10755
-0.55242	3.0618
-0.612331	-4.95202
-0.562404	2.99701
-0.622395	-4.75257
-0.572372	2.89061
-0.632387	-4.48784
-0.582375	2.78294
-0.642333	-4.1708
-0.592367	2.63326
-0.652366	-3.85362
-0.602389	2.46755
-0.662335	-3.51265
-0.612407	2.27803
-0.67241	-3.1811
-0.622361	2.07744
-0.682337	-2.87245
-0.632345	1.8906
-0.692378	-2.6011
-0.642287	1.70134
-0.702343	-2.36793
-0.652358	1.52087
-0.712331	-2.1844
-0.662373	1.35884
-0.722319	-2.02721
-0.672357	1.21579
-0.732345	-1.91164
-0.682326	1.10085
-0.742309	-1.82662
-0.692378	1.00858
-0.752328	-1.7584
-0.702381	0.936414
-0.762297	-1.7038
-0.712308	0.874303
-0.772338	-1.66969
-0.722334	0.820338
-0.782245	-1.65353
-0.732322	0.787628
-0.792302	-1.64564
-0.742321	0.751736
-0.80229	-1.62324
-0.752335	0.735954
-0.812293	-1.61382
-0.762354	0.721317
-0.822322	-1.59944
-0.772296	0.700317
-0.832348	-1.59867
-0.782329	0.675753
-0.842447	-1.57996
-0.792294	0.667098
-0.852393	-1.56062
-0.802309	0.65997
-0.862422	-1.54394
-0.812316	0.640115
-0.872425	-1.52256
-0.822342	0.623315
-0.882425	-1.48107
-0.832394	0.603842
-0.892412	-1.45027
-0.842409	0.589968
-0.902381	-1.4187
-0.852442	0.562477
-0.912392	-1.39058
-0.862445	0.548349
-0.922387	-1.34437
-0.872403	0.537276
-0.932402	-1.32108
-0.88236	0.51933
-0.942382	-1.29805
-0.892412	0.505457
-0.95237	-1.27692
-0.902377	0.493111
-0.962361	-1.26419
-0.912369	0.498839
-0.97238	-1.24243
-0.922364	0.486238
-0.982398	-1.24663
-0.932394	0.489039
-0.992378	-1.23224
-0.942355	0.494766
-1.00242	-1.23924
-0.952358	0.508257
-1.01238	-1.23237
-0.962346	0.511312
-1.02238	-1.24828
-0.972376	0.526712
-1.0324	-1.24688
-0.98239	0.534985
-1.04236	-1.25961
-0.992367	0.548222
-1.05238	-1.26801
-1.00238	0.553313
-1.06238	-1.28443
-1.01236	0.558531
-1.07237	-1.30797
-1.02239	0.564259
-1.08236	-1.32401
-1.03238	0.591496
-1.09233	-1.35112
-1.04234	0.597096
-1.1024	-1.39287
-1.05234	0.606896
-1.11233	-1.42061
-1.06233	0.622551
-1.1223	-1.46325
-1.07236	0.639479

File: CoPc_CNT_VFSWV_scans_18_17_C02.txt
Ewe/V	<I>/mA
-0.122419	-0.0183195
-0.072392	0.146666
-0.132395	-0.0915953
-0.0824142	0.133811
-0.142417	-0.110432
-0.0924209	0.123247
-0.15239	-0.114123
-0.102405	0.118029
-0.162381	-0.116032
-0.112358	0.11841
-0.17235	-0.124433
-0.12238	0.121847
-0.182387	-0.126851
-0.132372	0.129865
-0.192398	-0.129905
-0.142341	0.123883
-0.202317	-0.136015
-0.152367	0.133684
-0.212339	-0.135378
-0.162351	0.133938
-0.222377	-0.151033
-0.172411	0.134829
-0.23238	-0.152561
-0.182399	0.137247
-0.242333	-0.154215
-0.192345	0.131902
-0.252386	-0.162997
-0.202378	0.133684
-0.262396	-0.162488
-0.212366	0.135211
-0.272361	-0.177888
-0.222399	0.140047
-0.282376	-0.180943
-0.23236	0.142847
-0.29236	-0.194562
-0.242402	0.144884
-0.302309	-0.200544
-0.252386	0.14972
-0.312339	-0.219635
-0.262373	0.149848
-0.32238	-0.230326
-0.272361	0.160412
-0.332353	-0.245472
-0.282326	0.167921
-0.34231	-0.264564
-0.292314	0.177848
-0.35237	-0.289637
-0.302366	0.174794
-0.362328	-0.321329
-0.312309	0.192612
-0.37235	-0.368166
-0.322346	0.207504
-0.382307	-0.43155
-0.33236	0.233213
-0.392344	-0.508425
-0.34236	0.248868
-0.402294	-0.6077
-0.352282	0.300415
-0.412312	-0.728612
-0.362373	0.353362
-0.422361	-0.898781
-0.372346	0.440928
-0.432433	-1.10191
-0.382356	0.555731
-0.442413	-1.34921
-0.392299	0.711008
-0.452424	-1.63049
-0.402309	0.913632
-0.462427	-1.95492
-0.412297	1.15737
-0.47235	-2.31015
-0.422319	1.42885
-0.482417	-2.66868
-0.432395	1.72553
-0.492405	-3.03078
-0.442398	2.00668
-0.502382	-3.38385
-0.452397	2.26403
-0.512366	-3.72507
-0.462427	2.49376
-0.522384	-4.02952
-0.472403	2.68722
-0.532364	-4.31042
-0.482387	2.83499
-0.542386	-4.54715
-0.492401	2.9461
-0.552393	-4.73272
-0.50242	3.01738
-0.562354	-4.86954
-0.512343	3.06269
-0.572403	-4.96398
-0.522323	3.07834
-0.582364	-4.98714
-0.53244	3.07211
-0.59234	-4.94794
-0.542382	3.03991
-0.602339	-4.86611
-0.552374	2.9918
-0.612342	-4.70701
-0.562392	2.92129
-0.622304	-4.49649
-0.57233	2.81501
-0.632352	-4.23049
-0.582345	2.6871
-0.64231	-3.92388
-0.592371	2.53717
-0.652343	-3.59334
-0.602378	2.35567
-0.662342	-3.26153
-0.612385	2.17621
-0.672349	-2.938
-0.62241	1.96837
-0.682333	-2.64208
-0.632364	1.773
-0.692344	-2.37417
-0.642336	1.57929
-0.702339	-2.16518
-0.65237	1.40326
-0.712327	-1.98126
-0.66235	1.25002
-0.722342	-1.84661
-0.672346	1.12402
-0.732303	-1.74415
-0.682322	1.01049
-0.742294	-1.66333
-0.692394	0.919741
-0.752297	-1.60109
-0.702351	0.843757
-0.762281	-1.56609
-0.712365	0.783683
-0.772307	-1.53414
-0.722353	0.750973
-0.782303	-1.50983
-0.732284	0.718645
-0.792309	-1.49112
-0.74234	0.688607
-0.802286	-1.49023
-0.752332	0.67448
-0.812289	-1.47789
-0.762308	0.650806
-0.822311	-1.47101
-0.772288	0.632097
-0.832326	-1.46032
-0.782268	0.624715
-0.842397	-1.45001
-0.792313	0.603969
-0.852442	-1.43156
-0.802271	0.599896
-0.862434	-1.41005
-0.812312	0.575204
-0.872399	-1.38358
-0.822349	0.563622
-0.882409	-1.34857
-0.832318	0.544022
-0.892405	-1.3221
-0.842416	0.523785
-0.902404	-1.29003
-0.852446	0.509912
-0.912419	-1.25719
-0.862388	0.485984
-0.922399	-1.22652
-0.872433	0.478093
-0.93236	-1.19775
-0.882398	0.465365
-0.942405	-1.17281
-0.892393	0.445765
-0.9524	-1.14773
-0.902332	0.441946
-0.962392	-1.13284
-0.912369	0.432146
-0.972395	-1.12266
-0.92241	0.438764
-0.982398	-1.11184
-0.932333	0.429219
-0.992378	-1.11477
-0.942428	0.441564
-1.00238	-1.11019
-0.952389	0.441564
-1.01239	-1.1149
-0.962392	0.454419
-1.02237	-1.13068
-0.972387	0.463583
-1.03237	-1.13335
-0.982356	0.476693
-1.04237	-1.13831
-0.992347	0.484711
-1.0524	-1.14786
-1.00237	0.490057
-1.06238	-1.15982
-1.01238	0.495275
-1.07236	-1.1835
-1.02232	0.507621
-1.08233	-1.20157
-1.03233	0.514876
-1.09239	-1.22906
-1.04237	0.526967
-1.10238	-1.25274
-1.05234	0.542367
-1.11233	-1.28532
-1.06233	0.561331
-1.12228	-1.32236
-1.07239	0.584114