Folder: ElectrochemLabUtils/VFSWV_data_prep/Example_data/CoPc_VFSWV_txt_data (part 2)

File: CoPc_CNT_VFSWV_scans_07_6_C02.txt
Ewe/V	<I>/mA
-0.122308	-0.578882
-0.0723841	1.29221
-0.13233	-1.5043
-0.0823795	1.20287
-0.142337	-1.52492
-0.0923329	1.19828
-0.152366	-1.53981
-0.102374	1.19695
-0.162335	-1.57112
-0.112312	1.20191
-0.172296	-1.59326
-0.122327	1.20382
-0.182295	-1.61331
-0.132337	1.22692
-0.192295	-1.62877
-0.14236	1.22482
-0.202305	-1.65665
-0.152317	1.24372
-0.21232	-1.67249
-0.162331	1.25308
-0.222327	-1.68509
-0.172311	1.25613
-0.232295	-1.70056
-0.182276	1.27809
-0.242287	-1.71583
-0.192306	1.28133
-0.252313	-1.73549
-0.202305	1.28572
-0.26224	-1.75153
-0.212263	1.29928
-0.272426	-1.78017
-0.222308	1.29202
-0.282341	-1.80842
-0.232288	1.29871
-0.292382	-1.84145
-0.242295	1.3199
-0.302359	-1.87314
-0.252275	1.33326
-0.312381	-1.92259
-0.262293	1.35541
-0.322365	-1.96803
-0.272365	1.37202
-0.332398	-2.0169
-0.282375	1.39951
-0.342367	-2.09308
-0.292409	1.43941
-0.352374	-2.18548
-0.30237	1.50146
-0.362381	-2.29869
-0.312449	1.55892
-0.372368	-2.44436
-0.322391	1.64006
-0.382368	-2.59843
-0.332326	1.74411
-0.392367	-2.79679
-0.342352	1.86209
-0.402328	-3.03715
-0.352324	2.01272
-0.412358	-3.29259
-0.36232	2.16603
-0.422319	-3.59824
-0.372304	2.35904
-0.43233	-3.92814
-0.382341	2.57153
-0.442329	-4.28
-0.39234	2.77886
-0.452313	-4.65724
-0.402351	2.97799
-0.462335	-5.0322
-0.412327	3.14427
-0.472323	-5.42587
-0.42233	3.28956
-0.482307	-5.79757
-0.432326	3.38005
-0.492336	-6.17253
-0.442298	3.45699
-0.502316	-6.52839
-0.452282	3.4736
-0.512235	-6.86078
-0.462304	3.4589
-0.522292	-7.19659
-0.472281	3.42301
-0.53228	-7.48602
-0.482314	3.3476
-0.542329	-7.77678
-0.49234	3.27123
-0.55227	-8.0181
-0.502297	3.19792
-0.562254	-8.23555
-0.5123	3.108
-0.572311	-8.41062
-0.522345	3.02762
-0.582238	-8.53109
-0.532329	2.95565
-0.592256	-8.61547
-0.542302	2.89876
-0.602263	-8.63055
-0.552282	2.8621
-0.612361	-8.6023
-0.562254	2.86096
-0.622357	-8.48164
-0.572246	2.8789
-0.632383	-8.29588
-0.582303	2.90372
-0.64234	-8.04865
-0.592294	2.93732
-0.652331	-7.75406
-0.602278	2.96615
-0.662327	-7.43199
-0.612346	2.9652
-0.672383	-7.07708
-0.622383	2.95374
-0.68231	-6.72198
-0.632337	2.92434
-0.692344	-6.3707
-0.642302	2.85809
-0.702335	-6.05283
-0.652339	2.76836
-0.712365	-5.76417
-0.662373	2.67042
-0.722326	-5.50414
-0.672349	2.56103
-0.732299	-5.28268
-0.682344	2.46099
-0.742286	-5.10456
-0.69234	2.35522
-0.752347	-4.94591
-0.702385	2.26492
-0.76235	-4.82945
-0.712327	2.18149
-0.77233	-4.73246
-0.722273	2.10627
-0.782337	-4.67519
-0.73236	2.04251
-0.792294	-4.61983
-0.742355	1.98791
-0.802282	-4.58603
-0.752305	1.94858
-0.812289	-4.56121
-0.762354	1.91078
-0.822391	-4.53601
-0.772303	1.87966
-0.832283	-4.51921
-0.782279	1.86133
-0.842294	-4.50948
-0.792332	1.83842
-0.852316	-4.48829
-0.802301	1.81685
-0.862208	-4.46251
-0.81227	1.7905
-0.872345	-4.43731
-0.82228	1.77828
-0.882314	-4.39684
-0.832318	1.74697
-0.892263	-4.36839
-0.842313	1.74315
-0.902289	-4.32639
-0.852308	1.73475
-0.912288	-4.29183
-0.862292	1.72884
-0.922295	-4.25804
-0.872223	1.70688
-0.932264	-4.22005
-0.882291	1.70803
-0.942286	-4.18511
-0.892271	1.71146
-0.95235	-4.16602
-0.902263	1.72693
-0.962357	-4.1517
-0.912304	1.74163
-0.972368	-4.13433
-0.922234	1.7527
-0.982375	-4.12593
-0.932279	1.76835
-0.992347	-4.12669
-0.942248	1.78535
-1.00232	-4.13548
-0.952385	1.80539
-1.01236	-4.12555
-0.962353	1.83556
-1.02237	-4.14101
-0.97233	1.85465
-1.03236	-4.15552
-0.982317	1.8661
-1.04234	-4.1666
-0.992393	1.90352
-1.05236	-4.1727
-1.00232	1.91841
-1.06234	-4.1813
-1.01233	1.92147
-1.07231	-4.21165
-1.0223	1.9396
-1.08234	-4.23609
-1.03232	1.96041
-1.09234	-4.26472
-1.04235	1.97645
-1.10236	-4.30997
-1.05232	1.98848
-1.11232	-4.36381
-1.06226	2.00032
-1.12228	-4.41249
-1.07234	2.02246

File: CoPc_CNT_VFSWV_scans_08_7_C02.txt
Ewe/V	<I>/mA
-0.122395	-0.431649
-0.0723803	0.974915
-0.132337	-1.1175
-0.0823375	0.909432
-0.142341	-1.13717
-0.0923711	0.902941
-0.152324	-1.1618
-0.10237	0.912104
-0.162366	-1.18184
-0.11235	0.91115
-0.172292	-1.19845
-0.122373	0.924323
-0.182345	-1.22003
-0.132357	0.931959
-0.192367	-1.22976
-0.142341	0.939596
-0.202328	-1.25363
-0.152332	0.958306
-0.212316	-1.27596
-0.162324	0.961933
-0.222288	-1.28837
-0.1723	0.966897
-0.232341	-1.29849
-0.182311	0.977206
-0.242283	-1.3088
-0.192298	0.981215
-0.252271	-1.32942
-0.202298	0.985034
-0.262312	-1.34317
-0.212285	1.00412
-0.272411	-1.37142
-0.2223	1.00699
-0.282437	-1.38536
-0.232292	1.0173
-0.292428	-1.42335
-0.242275	1.02761
-0.302385	-1.45199
-0.252275	1.03754
-0.312346	-1.50162
-0.262324	1.05548
-0.322414	-1.53542
-0.272372	1.06598
-0.332341	-1.59193
-0.282383	1.09328
-0.34239	-1.66944
-0.292375	1.12841
-0.352359	-1.75554
-0.302366	1.18721
-0.3624	-1.8594
-0.312381	1.24124
-0.372357	-1.98445
-0.322372	1.3115
-0.382402	-2.1387
-0.332391	1.41459
-0.392367	-2.32446
-0.342378	1.52647
-0.402389	-2.56043
-0.352343	1.67156
-0.412369	-2.81511
-0.362385	1.84739
-0.422365	-3.1095
-0.372368	2.0385
-0.432322	-3.43558
-0.382345	2.24812
-0.442355	-3.7903
-0.392325	2.48371
-0.452343	-4.17461
-0.402343	2.713
-0.462339	-4.55854
-0.412323	2.92568
-0.472353	-4.95125
-0.422326	3.1122
-0.482295	-5.33938
-0.43236	3.25099
-0.492321	-5.71147
-0.442332	3.35523
-0.50232	-6.07726
-0.452316	3.41976
-0.512312	-6.42606
-0.462304	3.43904
-0.522334	-6.73916
-0.472365	3.43103
-0.532291	-7.03279
-0.482329	3.39743
-0.54229	-7.31343
-0.492329	3.35562
-0.552297	-7.54215
-0.502274	3.29567
-0.562274	-7.74165
-0.5123	3.22751
-0.572307	-7.89801
-0.522311	3.16012
-0.582276	-8.00531
-0.532322	3.10552
-0.592256	-8.06124
-0.54229	3.06504
-0.602278	-8.06678
-0.552297	3.04118
-0.612369	-8.01275
-0.562277	3.02552
-0.622361	-7.87339
-0.572322	3.03182
-0.632322	-7.67197
-0.582322	3.04233
-0.642405	-7.42226
-0.592313	3.04309
-0.65237	-7.1187
-0.602309	3.04843
-0.66238	-6.78174
-0.612369	3.00529
-0.672372	-6.43447
-0.622368	2.9545
-0.682318	-6.07956
-0.632383	2.87298
-0.692378	-5.75252
-0.642351	2.77963
-0.702373	-5.42377
-0.652312	2.66508
-0.712399	-5.14045
-0.662354	2.53698
-0.72236	-4.89512
-0.672341	2.40849
-0.732341	-4.66946
-0.682371	2.28783
-0.742344	-4.50585
-0.692374	2.17233
-0.752354	-4.36534
-0.702331	2.07515
-0.762331	-4.25289
-0.712319	1.98065
-0.772353	-4.15839
-0.722307	1.91994
-0.782344	-4.09462
-0.732283	1.85828
-0.792252	-4.06083
-0.74237	1.80196
-0.802358	-4.02876
-0.752267	1.759
-0.812289	-3.99745
-0.7623	1.72845
-0.822315	-3.98103
-0.772288	1.69905
-0.832314	-3.96804
-0.782283	1.67481
-0.842355	-3.9417
-0.792313	1.65362
-0.852369	-3.92509
-0.802289	1.62803
-0.862392	-3.89111
-0.812319	1.61352
-0.872356	-3.86743
-0.822311	1.59997
-0.882314	-3.83364
-0.832325	1.58221
-0.892321	-3.79049
-0.842302	1.56656
-0.902278	-3.75384
-0.852293	1.54842
-0.912292	-3.71757
-0.862353	1.53391
-0.922257	-3.67365
-0.872276	1.52456
-0.932291	-3.64635
-0.88231	1.51501
-0.942332	-3.61428
-0.892275	1.5194
-0.952343	-3.58087
-0.902282	1.53219
-0.962407	-3.56942
-0.912323	1.53849
-0.97236	-3.55834
-0.92228	1.5425
-0.982424	-3.54632
-0.932295	1.56618
-0.992385	-3.54517
-0.942282	1.58317
-1.00231	-3.55128
-0.952381	1.59386
-1.01236	-3.55777
-0.962311	1.62383
-1.02239	-3.55701
-0.972349	1.63891
-1.03233	-3.57476
-0.982352	1.65323
-1.0423	-3.57915
-0.992389	1.67366
-1.05238	-3.59614
-1.00238	1.69562
-1.06231	-3.60874
-1.01236	1.7065
-1.07234	-3.64578
-1.02236	1.72101
-1.08234	-3.66965
-1.03238	1.74525
-1.09237	-3.70153
-1.04231	1.75862
-1.10241	-3.75078
-1.05237	1.7737
-1.11235	-3.79679
-1.06235	1.78229
-1.12234	-3.8407
-1.07238	1.80406

File: CoPc_CNT_VFSWV_scans_09_8_C02.txt
Ewe/V	<I>/mA
-0.122323	-0.31542
-0.072365	0.743145
-0.132334	-0.833806
-0.082391	0.704772
-0.142314	-0.856716
-0.0923139	0.700953
-0.15234	-0.873516
-0.102332	0.695608
-0.162316	-0.88688
-0.112293	0.695799
-0.172311	-0.899862
-0.122357	0.696562
-0.182311	-0.922772
-0.132341	0.719281
-0.192337	-0.934418
-0.142363	0.724245
-0.202275	-0.956564
-0.152286	0.737991
-0.212297	-0.975082
-0.162335	0.741618
-0.222292	-0.979665
-0.172327	0.744291
-0.232326	-0.992838
-0.182299	0.751546
-0.242253	-1.00716
-0.192283	0.764146
-0.252263	-1.01441
-0.202313	0.771973
-0.262282	-1.03522
-0.212278	0.767582
-0.27238	-1.05469
-0.222288	0.782665
-0.282398	-1.08658
-0.232253	0.783428
-0.292333	-1.10777
-0.242302	0.796029
-0.302347	-1.12934
-0.25229	0.800038
-0.312396	-1.16886
-0.262247	0.823902
-0.32241	-1.2101
-0.272369	0.836693
-0.332383	-1.26298
-0.282368	0.860558
-0.342394	-1.3298
-0.292398	0.88614
-0.352347	-1.40598
-0.302362	0.94036
-0.362381	-1.50754
-0.312308	0.991716
-0.372369	-1.62515
-0.322372	1.05052
-0.382356	-1.75669
-0.33233	1.13796
-0.392348	-1.94015
-0.342329	1.25021
-0.402332	-2.1536
-0.352378	1.38595
-0.412342	-2.41076
-0.362415	1.55148
-0.422307	-2.69331
-0.372361	1.73781
-0.432318	-3.01615
-0.382356	1.96824
-0.442329	-3.36418
-0.392321	2.21395
-0.452278	-3.74467
-0.402316	2.4587
-0.462335	-4.14846
-0.41235	2.69792
-0.472281	-4.54422
-0.422288	2.91709
-0.482349	-4.93636
-0.432314	3.09425
-0.492275	-5.31494
-0.44229	3.22923
-0.502313	-5.67921
-0.452339	3.3287
-0.512277	-6.02495
-0.462262	3.39494
-0.522231	-6.33939
-0.472326	3.41537
-0.532299	-6.63512
-0.482322	3.40392
-0.542271	-6.89495
-0.492325	3.38158
-0.552278	-7.11374
-0.502324	3.3392
-0.562209	-7.30503
-0.5123	3.3014
-0.572242	-7.457
-0.522292	3.25119
-0.582276	-7.54177
-0.532264	3.21071
-0.592298	-7.58549
-0.542268	3.16928
-0.602282	-7.56143
-0.552263	3.15286
-0.612373	-7.49996
-0.562235	3.13988
-0.622372	-7.34971
-0.572273	3.12747
-0.632333	-7.13932
-0.58228	3.12365
-0.642355	-6.87013
-0.59229	3.09387
-0.652366	-6.56772
-0.602251	3.06485
-0.662346	-6.23572
-0.612369	2.98505
-0.672334	-5.87623
-0.622311	2.90028
-0.682314	-5.52247
-0.632348	2.80082
-0.692328	-5.19238
-0.64234	2.65821
-0.702366	-4.87374
-0.652331	2.52667
-0.712346	-4.60188
-0.662323	2.38023
-0.722296	-4.35999
-0.672307	2.24297
-0.732394	-4.15113
-0.682348	2.11429
-0.742347	-3.99439
-0.692382	2.00394
-0.752282	-3.85273
-0.702309	1.90257
-0.762293	-3.75327
-0.712315	1.81475
-0.772254	-3.66525
-0.722349	1.74124
-0.782306	-3.61485
-0.732321	1.68244
-0.792271	-3.57094
-0.742344	1.63281
-0.802282	-3.54097
-0.752263	1.58832
-0.812266	-3.51596
-0.762293	1.56083
-0.822284	-3.50832
-0.772334	1.53048
-0.83231	-3.49171
-0.782276	1.50814
-0.842317	-3.46613
-0.792283	1.48504
-0.852312	-3.45086
-0.802316	1.45736
-0.862273	-3.42184
-0.812331	1.44094
-0.872288	-3.39607
-0.822265	1.42108
-0.882268	-3.36724
-0.832321	1.3997
-0.892279	-3.33631
-0.842294	1.37889
-0.902331	-3.29106
-0.852354	1.37049
-0.912277	-3.24887
-0.862315	1.35846
-0.922238	-3.21012
-0.872322	1.33842
-0.932249	-3.16869
-0.882291	1.33956
-0.942263	-3.13948
-0.892309	1.33078
-0.952366	-3.11218
-0.902297	1.33842
-0.962334	-3.08488
-0.912246	1.3325
-0.972368	-3.07514
-0.922276	1.34815
-0.982352	-3.07686
-0.932226	1.36228
-0.992393	-3.07247
-0.942244	1.38233
-1.00238	-3.08087
-0.952358	1.39264
-1.01235	-3.08106
-0.962357	1.41936
-1.02231	-3.08545
-0.972307	1.43235
-1.03237	-3.09958
-0.982371	1.46079
-1.04233	-3.11141
-0.992351	1.46862
-1.05234	-3.12707
-1.00232	1.48637
-1.06231	-3.15208
-1.01234	1.50604
-1.07235	-3.16773
-1.02231	1.51482
-1.0823	-3.19961
-1.03236	1.52589
-1.09234	-3.23379
-1.04229	1.54327
-1.10236	-3.26968
-1.05227	1.55873
-1.1123	-3.32772
-1.0623	1.58317
-1.12228	-3.3701
-1.0723	1.6057

File: CoPc_CNT_VFSWV_scans_10_9_C02.txt
Ewe/V	<I>/mA
-0.122014	-0.233823
-0.0720676	0.67028
-0.131983	-0.733703
-0.0820553	0.643424
-0.142032	-0.753558
-0.0920813	0.637824
-0.151935	-0.76565
-0.102019	0.634388
-0.162038	-0.780923
-0.112042	0.638588
-0.171976	-0.799251
-0.122037	0.637188
-0.182059	-0.816433
-0.132002	0.651697
-0.192012	-0.832215
-0.142051	0.650425
-0.202015	-0.848888
-0.152023	0.661243
-0.211927	-0.862125
-0.161996	0.662389
-0.22198	-0.866071
-0.17193	0.684662
-0.232021	-0.885035
-0.181975	0.688989
-0.242035	-0.899417
-0.192081	0.695353
-0.251996	-0.909217
-0.201996	0.693571
-0.262041	-0.923472
-0.211977	0.700826
-0.27193	-0.943582
-0.221968	0.707699
-0.281967	-0.9642
-0.232036	0.719026
-0.292001	-0.985583
-0.242009	0.728699
-0.30197	-1.009
-0.251977	0.738118
-0.312064	-1.04298
-0.261969	0.753391
-0.321987	-1.09084
-0.27198	0.770191
-0.331914	-1.15193
-0.282009	0.792719
-0.341898	-1.1961
-0.291902	0.818047
-0.351981	-1.27285
-0.302015	0.867176
-0.36195	-1.36512
-0.311973	0.915286
-0.371956	-1.49291
-0.321945	0.973833
-0.381967	-1.62476
-0.331898	1.06064
-0.392016	-1.79671
-0.341959	1.172
-0.401935	-2.00099
-0.352008	1.30055
-0.411992	-2.24613
-0.362026	1.46906
-0.421979	-2.53581
-0.37193	1.65972
-0.432055	-2.86558
-0.38196	1.89671
-0.442024	-3.2161
-0.391997	2.14388
-0.452034	-3.59322
-0.401943	2.40938
-0.46203	-3.98841
-0.411915	2.66864
-0.472063	-4.39213
-0.421964	2.90945
-0.481994	-4.78936
-0.432047	3.09858
-0.492062	-5.17017
-0.442069	3.25462
-0.501985	-5.52616
-0.452023	3.37502
-0.512041	-5.86764
-0.462018	3.44986
-0.522025	-6.17896
-0.472094	3.48677
-0.532017	-6.46049
-0.482009	3.50192
-0.542031	-6.71517
-0.491993	3.49352
-0.552053	-6.93002
-0.501977	3.46463
-0.561961	-7.10706
-0.512041	3.43128
-0.57204	-7.23459
-0.521983	3.39781
-0.581963	-7.31833
-0.532009	3.35899
-0.591947	-7.34341
-0.542001	3.3315
-0.601927	-7.30993
-0.552049	3.30744
-0.612056	-7.22695
-0.56198	3.28631
-0.621991	-7.0746
-0.571983	3.26633
-0.63194	-6.86409
-0.581986	3.23935
-0.641951	-6.60979
-0.59197	3.20473
-0.651939	-6.30127
-0.601965	3.14096
-0.662064	-5.97493
-0.61206	3.05442
-0.671945	-5.63307
-0.621949	2.95985
-0.681932	-5.28001
-0.63199	2.82723
-0.691955	-4.95316
-0.641916	2.68341
-0.701977	-4.64694
-0.651965	2.53195
-0.712029	-4.37355
-0.661938	2.38482
-0.721952	-4.13592
-0.671918	2.23998
-0.732009	-3.93572
-0.681948	2.09959
-0.741878	-3.77777
-0.69197	1.98288
-0.751961	-3.63471
-0.701958	1.88602
-0.7619	-3.53238
-0.711976	1.7898
-0.771903	-3.46645
-0.721945	1.72158
-0.781906	-3.39988
-0.731894	1.66494
-0.791916	-3.35801
-0.741955	1.61149
-0.801912	-3.33599
-0.751984	1.5649
-0.811972	-3.31805
-0.761949	1.54225
-0.821941	-3.30074
-0.771918	1.5117
-0.831936	-3.28432
-0.781936	1.48994
-0.841989	-3.26446
-0.791928	1.4697
-0.852041	-3.24677
-0.801977	1.44794
-0.862048	-3.22055
-0.811926	1.42503
-0.872059	-3.1825
-0.821994	1.40415
-0.882093	-3.14966
-0.831928	1.39295
-0.892031	-3.11529
-0.842046	1.36304
-0.902041	-3.07342
-0.852041	1.34612
-0.912014	-3.02544
-0.86198	1.33568
-0.921998	-2.99349
-0.871956	1.32041
-0.931978	-2.95505
-0.882051	1.31022
-0.942008	-2.91993
-0.892065	1.29826
-0.951965	-2.89663
-0.902068	1.2961
-0.961983	-2.88111
-0.912071	1.30195
-0.972002	-2.86672
-0.922028	1.3045
-0.982089	-2.87054
-0.932005	1.31328
-0.991947	-2.86112
-0.941951	1.3325
-1.00196	-2.87576
-0.951927	1.36075
-1.01199	-2.87029
-0.96201	1.37081
-1.02205	-2.88429
-0.972036	1.39792
-1.03204	-2.88989
-0.98205	1.42121
-1.04197	-2.90694
-0.991966	1.43241
-1.052	-2.92654
-1.00198	1.45265
-1.06196	-2.93571
-1.01196	1.46117
-1.07201	-2.96893
-1.02197	1.47148
-1.08207	-2.99286
-1.03195	1.4935
-1.09192	-3.03562
-1.04201	1.5089
-1.10194	-3.07698
-1.05199	1.53041
-1.112	-3.12408
-1.06199	1.54607
-1.12199	-3.17002
-1.07204	1.56274

File: CoPc_CNT_VFSWV_scans_11_10_C02.txt
Ewe/V	<I>/mA
-0.122415	-0.176816
-0.0724186	0.518948
-0.132414	-0.567481
-0.0824332	0.488911
-0.142432	-0.579699
-0.0924019	0.480256
-0.152405	-0.591918
-0.102428	0.479238
-0.162385	-0.613046
-0.112419	0.476184
-0.172392	-0.631628
-0.122438	0.476056
-0.182437	-0.632901
-0.132452	0.491966
-0.192352	-0.644992
-0.142379	0.49973
-0.202401	-0.656447
-0.152374	0.505966
-0.212419	-0.671084
-0.162427	0.512585
-0.222422	-0.68572
-0.172365	0.517166
-0.232418	-0.691448
-0.182464	0.516785
-0.242329	-0.700612
-0.192398	0.52773
-0.25237	-0.72314
-0.20242	0.527985
-0.262362	-0.730522
-0.212362	0.537276
-0.272346	-0.737776
-0.222399	0.547586
-0.282341	-0.769341
-0.232345	0.553313
-0.292402	-0.788687
-0.242398	0.557768
-0.302378	-0.807269
-0.252409	0.56324
-0.312358	-0.837052
-0.262385	0.579786
-0.322426	-0.877016
-0.272376	0.599005
-0.332372	-0.919399
-0.282368	0.61186
-0.342333	-0.970055
-0.292344	0.645461
-0.352344	-1.0454
-0.302351	0.677153
-0.362358	-1.13017
-0.3124	0.713808
-0.372334	-1.23059
-0.322376	0.779228
-0.38236	-1.36461
-0.332395	0.848848
-0.392356	-1.512
-0.342379	0.946851
-0.402363	-1.7066
-0.352336	1.05402
-0.412346	-1.94334
-0.36235	1.21235
-0.422392	-2.21112
-0.372338	1.39346
-0.432406	-2.52664
-0.382353	1.62383
-0.442443	-2.87436
-0.392363	1.878
-0.452408	-3.24435
-0.402328	2.14643
-0.462442	-3.64107
-0.412366	2.42147
-0.472456	-4.03996
-0.422346	2.69282
-0.482456	-4.43998
-0.432425	2.90588
-0.492367	-4.82029
-0.44244	3.0898
-0.502412	-5.18519
-0.452454	3.24342
-0.512373	-5.52514
-0.462419	3.34932
-0.522395	-5.84448
-0.472456	3.40913
-0.532391	-6.12283
-0.482425	3.44719
-0.542378	-6.37051
-0.492413	3.45826
-0.552427	-6.59006
-0.50242	3.44172
-0.5624	-6.74941
-0.512396	3.42823
-0.572384	-6.87592
-0.522403	3.40175
-0.582368	-6.9388
-0.532368	3.37999
-0.592363	-6.96018
-0.542417	3.34702
-0.60237	-6.92556
-0.552404	3.31037
-0.612365	-6.82183
-0.562369	3.29255
-0.622403	-6.65841
-0.572391	3.25946
-0.632356	-6.43478
-0.582391	3.21618
-0.642348	-6.16814
-0.592367	3.16146
-0.652397	-5.85593
-0.602336	3.07567
-0.662377	-5.52298
-0.612427	2.96889
-0.672372	-5.18124
-0.622388	2.83665
-0.682398	-4.83416
-0.632368	2.68722
-0.692371	-4.50566
-0.642432	2.52635
-0.702366	-4.20287
-0.652366	2.36
-0.712392	-3.93737
-0.662304	2.20027
-0.722334	-3.71158
-0.672349	2.0455
-0.732383	-3.51634
-0.682329	1.91199
-0.742352	-3.36425
-0.69239	1.78955
-0.752332	-3.24397
-0.70237	1.69205
-0.762388	-3.1531
-0.712369	1.60983
-0.772342	-3.09009
-0.722345	1.53423
-0.782329	-3.04377
-0.732364	1.47899
-0.792348	-3.001
-0.742351	1.43305
-0.802324	-2.97338
-0.752297	1.39308
-0.812277	-2.95225
-0.762331	1.36661
-0.822284	-2.94424
-0.772345	1.33606
-0.832337	-2.92298
-0.782287	1.31621
-0.842443	-2.91407
-0.792329	1.29864
-0.852416	-2.88391
-0.802385	1.27917
-0.862411	-2.85972
-0.812323	1.25257
-0.872433	-2.83643
-0.822341	1.23475
-0.882421	-2.80041
-0.832333	1.22088
-0.892443	-2.75612
-0.842359	1.19338
-0.902396	-2.71234
-0.852442	1.18078
-0.91243	-2.67428
-0.862472	1.16118
-0.92233	-2.63585
-0.872399	1.14273
-0.932436	-2.60377
-0.882409	1.12809
-0.942432	-2.57361
-0.892443	1.12096
-0.952415	-2.53899
-0.902416	1.11727
-0.962415	-2.5255
-0.912426	1.12275
-0.972422	-2.50908
-0.922429	1.12987
-0.982413	-2.50501
-0.932409	1.13929
-0.992328	-2.50933
-0.942389	1.14757
-1.00238	-2.50959
-0.952343	1.17557
-1.01241	-2.51684
-0.962399	1.18575
-1.02239	-2.5255
-0.972334	1.20484
-1.03237	-2.53644
-0.98239	1.22508
-1.04244	-2.5465
-0.992363	1.23551
-1.05235	-2.55897
-1.00234	1.25359
-1.06239	-2.58035
-1.01242	1.26313
-1.07235	-2.60899
-1.02241	1.27204
-1.08234	-2.6319
-1.03233	1.29253
-1.09239	-2.67454
-1.04237	1.31048
-1.10241	-2.71234
-1.05243	1.3227
-1.11238	-2.75345
-1.06237	1.35757
-1.12233	-2.80843
-1.07237	1.36763

File: CoPc_CNT_VFSWV_scans_12_11_C02.txt
Ewe/V	<I>/mA
-0.12248	-0.144781
-0.0724645	0.407073
-0.132406	-0.43155
-0.0824371	0.376145
-0.142429	-0.440586
-0.0924363	0.369526
-0.152458	-0.45586
-0.102432	0.372835
-0.162423	-0.467824
-0.112438	0.373217
-0.172373	-0.473678
-0.122449	0.377799
-0.182384	-0.494552
-0.132384	0.390272
-0.192379	-0.494042
-0.142417	0.391163
-0.202405	-0.516825
-0.152378	0.394981
-0.212419	-0.521789
-0.162389	0.396254
-0.22243	-0.53388
-0.172361	0.3988
-0.232395	-0.541262
-0.182345	0.415346
-0.242398	-0.541389
-0.19236	0.423873
-0.252393	-0.564935
-0.202374	0.423109
-0.262354	-0.571426
-0.212393	0.420691
-0.272396	-0.58619
-0.222415	0.42731
-0.282364	-0.599936
-0.232403	0.43851
-0.292337	-0.619409
-0.242379	0.444237
-0.302336	-0.640919
-0.25237	0.453019
-0.312381	-0.665356
-0.262358	0.460783
-0.322373	-0.702012
-0.272346	0.476947
-0.332364	-0.745667
-0.282341	0.49082
-0.342356	-0.783977
-0.292383	0.50953
-0.35237	-0.853343
-0.302359	0.531167
-0.362324	-0.923218
-0.312366	0.573168
-0.372311	-1.01969
-0.322403	0.615042
-0.382337	-1.13641
-0.332334	0.684153
-0.392363	-1.28125
-0.342283	0.758991
-0.402355	-1.46109
-0.352324	0.870994
-0.412358	-1.66664
-0.362362	1.01062
-0.422384	-1.93023
-0.372353	1.1846
-0.432471	-2.23136
-0.38233	1.39677
-0.442436	-2.5661
-0.392325	1.63452
-0.45242	-2.9338
-0.402324	1.91606
-0.462419	-3.31906
-0.412362	2.1981
-0.472388	-3.70942
-0.422304	2.4818
-0.482437	-4.11187
-0.432418	2.7109
-0.492375	-4.50006
-0.442413	2.9414
-0.502397	-4.85974
-0.452389	3.11029
-0.512358	-5.20148
-0.462358	3.23566
-0.522422	-5.51789
-0.472414	3.32781
-0.532433	-5.80897
-0.482429	3.3903
-0.542405	-6.04723
-0.492386	3.40697
-0.552397	-6.25112
-0.502389	3.42594
-0.562327	-6.41773
-0.512377	3.41232
-0.572399	-6.5347
-0.522411	3.39157
-0.58236	-6.59922
-0.532414	3.37986
-0.592382	-6.60597
-0.542348	3.34842
-0.602351	-6.55939
-0.552366	3.31864
-0.612346	-6.43987
-0.562373	3.27906
-0.62238	-6.27747
-0.572384	3.23859
-0.632364	-6.05156
-0.58236	3.18042
-0.642287	-5.76315
-0.592329	3.09934
-0.652336	-5.44979
-0.602305	3.00223
-0.662342	-5.1092
-0.612346	2.86248
-0.672338	-4.76365
-0.622296	2.71281
-0.682383	-4.41847
-0.632387	2.54862
-0.692359	-4.09672
-0.642355	2.37756
-0.702347	-3.79928
-0.652355	2.20319
-0.712327	-3.55032
-0.662358	2.03926
-0.722319	-3.32899
-0.672365	1.87851
-0.732341	-3.15857
-0.682322	1.74169
-0.742332	-3.00673
-0.692382	1.63796
-0.752328	-2.90083
-0.702282	1.53181
-0.762319	-2.8232
-0.71235	1.44641
-0.772319	-2.7537
-0.722311	1.38315
-0.782406	-2.7187
-0.732333	1.32995
-0.792336	-2.68039
-0.74229	1.28515
-0.802286	-2.65748
-0.752332	1.24964
-0.812323	-2.63712
-0.762289	1.22393
-0.822296	-2.6263
-0.772345	1.19809
-0.832329	-2.60861
-0.782345	1.17149
-0.842359	-2.59906
-0.792321	1.15915
-0.852408	-2.57844
-0.802297	1.1328
-0.8624	-2.54892
-0.8123	1.11371
-0.872422	-2.52384
-0.822307	1.10149
-0.882413	-2.48897
-0.832314	1.07731
-0.892447	-2.45397
-0.842348	1.04931
-0.90245	-2.40751
-0.852416	1.03276
-0.912461	-2.36246
-0.86238	1.01889
-0.922376	-2.32707
-0.87241	1.00718
-0.932406	-2.28864
-0.882421	0.987706
-0.942374	-2.25694
-0.892424	0.979688
-0.952381	-2.24536
-0.902404	0.968233
-0.962403	-2.22474
-0.912403	0.978415
-0.972402	-2.19674
-0.922368	0.975233
-0.982428	-2.19687
-0.932398	0.987706
-0.992409	-2.19712
-0.94237	0.995088
-1.00233	-2.19891
-0.952377	1.01571
-1.01232	-2.20603
-0.962357	1.02945
-1.02238	-2.21278
-0.972303	1.05147
-1.03238	-2.22678
-0.982375	1.06089
-1.04239	-2.23136
-0.992401	1.07476
-1.05236	-2.25236
-1.00232	1.09131
-1.06239	-2.26598
-1.01236	1.10811
-1.07232	-2.29856
-1.02232	1.1174
-1.08236	-2.33026
-1.03235	1.12198
-1.09233	-2.35393
-1.04231	1.14947
-1.10233	-2.39084
-1.05233	1.16691
-1.11238	-2.43882
-1.06238	1.17951
-1.1224	-2.49381
-1.07233	1.20497