Folder: ElectrochemLabUtils/VFSWV_data_prep/Example_data/CoPc_VFSWV_txt_data (part 9)

File: CoPc_CNT_VFSWV_scans_49_48_C02.txt
Ewe/V	<I>/mA
-0.122375	-0.00117535
-0.0724136	0.0242652
-0.132348	0.00496818
-0.0823976	0.0201238
-0.142347	-0.00111171
-0.0923548	0.0185084
-0.152377	0.00587869
-0.102358	0.0231197
-0.162369	-0.00492999
-0.112399	0.0143964
-0.172364	-0.00199285
-0.12241	0.0137502
-0.182367	-0.0066629
-0.132382	0.0133978
-0.192343	-0.00240405
-0.142362	0.0169223
-0.202495	0.00114989
-0.15235	0.0152775
-0.21246	-0.00492999
-0.162384	0.0200063
-0.222505	-0.00384325
-0.17236	0.0128103
-0.232451	-0.00816085
-0.182329	0.0187727
-0.242431	-0.00278588
-0.192313	0.0136327
-0.25243	-0.00957067
-0.202461	0.0165111
-0.262468	-0.00936507
-0.212491	0.0133097
-0.272455	-0.00945319
-0.222482	0.0140146
-0.282462	-0.0105693
-0.232527	0.0131334
-0.292412	-0.0099525
-0.242439	0.0245589
-0.302434	-0.0132127
-0.252415	0.0124285
-0.312391	-0.016796
-0.262422	0.00949138
-0.322436	-0.00910073
-0.272475	0.0200651
-0.332394	-0.0116267
-0.282401	0.0100201
-0.34242	-0.0118616
-0.292416	0.0138383
-0.352403	-0.0191751
-0.30243	0.0157181
-0.362391	-0.0175597
-0.312426	0.0182734
-0.372421	-0.012126
-0.322467	0.017921
-0.38239	-0.0158268
-0.33239	0.0207994
-0.392389	-0.0142701
-0.342442	0.0191546
-0.402377	-0.0205556
-0.352384	0.0191252
-0.412384	-0.02035
-0.362406	0.0181266
-0.422402	-0.0210255
-0.372348	0.0214162
-0.432386	-0.0259012
-0.382405	0.0219449
-0.442408	-0.0267823
-0.392377	0.0254988
-0.45243	-0.0332147
-0.40238	0.0222973
-0.462361	-0.0395883
-0.412406	0.0276429
-0.472383	-0.0405869
-0.422371	0.0243239
-0.482393	-0.0533047
-0.432409	0.0266443
-0.492347	-0.0649358
-0.442381	0.0393915
-0.502354	-0.0722199
-0.452384	0.0410657
-0.51238	-0.0898428
-0.462395	0.0487022
-0.522341	-0.100945
-0.472341	0.0574549
-0.532363	-0.118627
-0.48234	0.0624187
-0.542354	-0.138658
-0.492366	0.0697028
-0.552388	-0.146853
-0.50238	0.0800709
-0.562307	-0.16333
-0.512338	0.10066
-0.572325	-0.16007
-0.522329	0.111645
-0.582298	-0.162302
-0.532317	0.111616
-0.592347	-0.155253
-0.542366	0.117108
-0.60235	-0.154959
-0.552373	0.118694
-0.612406	-0.142241
-0.56233	0.115816
-0.622428	-0.134311
-0.572352	0.103656
-0.632508	-0.134605
-0.582347	0.0941398
-0.64235	-0.133724
-0.59237	0.0891173
-0.652361	-0.120918
-0.602334	0.0807171
-0.662414	-0.120272
-0.612456	0.0653264
-0.672398	-0.12782
-0.622451	0.0644159
-0.682405	-0.128731
-0.632416	0.0556339
-0.692438	-0.121446
-0.642404	0.0541947
-0.702407	-0.125206
-0.652411	0.0489372
-0.712418	-0.124207
-0.662395	0.0485847
-0.722329	-0.122592
-0.672417	0.0526086
-0.732385	-0.121887
-0.682389	0.0482616
-0.742377	-0.123532
-0.692404	0.0466756
-0.75243	-0.121329
-0.702411	0.0475861
-0.76236	-0.121564
-0.712398	0.0476742
-0.772413	-0.123062
-0.722344	0.0449133
-0.782401	-0.12456
-0.73237	0.0421818
-0.792389	-0.121887
-0.742388	0.0483204
-0.802308	-0.117041
-0.752418	0.0474099
-0.81233	-0.127497
-0.762349	0.0418587
-0.822379	-0.120183
-0.772348	0.0416824
-0.832389	-0.120448
-0.78237	0.0397146
-0.842377	-0.118568
-0.792339	0.0393915
-0.852338	-0.115278
-0.802365	0.0407719
-0.862356	-0.115249
-0.812437	0.0358375
-0.872359	-0.109845
-0.822356	0.0373061
-0.882351	-0.106173
-0.832397	0.0314612
-0.892335	-0.106173
-0.842377	0.0286415
-0.902315	-0.0982724
-0.852357	0.0327242
-0.912387	-0.0955996
-0.862364	0.0276723
-0.92234	-0.091282
-0.872333	0.0253519
-0.932351	-0.0889616
-0.882351	0.019742
-0.942373	-0.0851727
-0.892339	0.023061
-0.95233	-0.0850258
-0.902342	0.0240302
-0.96236	-0.0824412
-0.912417	0.0203294
-0.972378	-0.078711
-0.922314	0.0211812
-0.982366	-0.0802089
-0.932366	0.0258806
-0.992342	-0.0802971
-0.942293	0.020535
-1.00231	-0.0807083
-0.952353	0.0252638
-1.01232	-0.0761263
-0.96236	0.0249701
-1.02246	-0.0786522
-0.972352	0.0257338
-1.03247	-0.0800621
-0.982343	0.0256457
-1.04244	-0.0810313
-0.992373	0.0237659
-1.05237	-0.0779473
-1.00235	0.0247351
-1.06241	-0.0829111
-1.01242	0.0249407
-1.07242	-0.077918
-1.02241	0.026145
-1.08238	-0.0848496
-1.03239	0.0310206
-1.09243	-0.0906652
-1.04245	0.0236484
-1.10239	-0.0932205
-1.05241	0.0269086
-1.11239	-0.0934261
-1.0624	0.0290821
-1.12234	-0.0942779
-1.07237	0.0282891

File: CoPc_CNT_VFSWV_scans_50_49_C02.txt
Ewe/V	<I>/mA
-0.122383	-0.00186265
-0.0723869	0.0242715
-0.132352	0.00708921
-0.0823709	0.0240806
-0.142347	0.00220726
-0.0924007	0.0188441
-0.152362	-0.000547355
-0.102343	0.0198532
-0.162384	-0.00332925
-0.112388	0.0171531
-0.172341	-0.00150193
-0.122364	0.015544
-0.182367	0.00239818
-0.132378	0.0190895
-0.192362	-0.00027462
-0.142343	0.0184077
-0.202396	-0.00398381
-0.152331	0.0176986
-0.212472	0.00231636
-0.16238	0.0173168
-0.222452	-0.000138253
-0.172345	0.0169077
-0.232447	-0.00376562
-0.182352	0.0184622
-0.242458	-0.00215649
-0.192397	0.014453
-0.252415	-0.000301894
-0.202442	0.0170168
-0.262452	-0.00444746
-0.212407	0.0154622
-0.272448	-0.0064657
-0.222478	0.0138258
-0.282416	-0.00480201
-0.232451	0.0196896
-0.292408	-0.0068748
-0.242385	0.0131166
-0.302438	-0.00744754
-0.252423	0.0102802
-0.312353	-0.00627478
-0.262487	0.0207532
-0.322432	-0.00992943
-0.272444	0.0136076
-0.332397	-0.0114295
-0.282397	0.0157349
-0.342355	-0.0104203
-0.292389	0.0207805
-0.352396	-0.00927486
-0.302411	0.0180804
-0.362414	-0.0112658
-0.312433	0.0191986
-0.372364	-0.0129568
-0.322436	0.0170168
-0.382409	-0.0164751
-0.332386	0.0170168
-0.392412	-0.0181933
-0.342412	0.014944
-0.402392	-0.0182751
-0.352415	0.0186259
-0.412414	-0.0195024
-0.362384	0.0192532
-0.422413	-0.0244116
-0.372383	0.0188441
-0.432382	-0.0237571
-0.382371	0.0209987
-0.44232	-0.0285845
-0.392423	0.0221714
-0.452388	-0.0297572
-0.402373	0.0262625
-0.462372	-0.0300027
-0.412437	0.0262897
-0.472352	-0.0397393
-0.422364	0.0297807
-0.482367	-0.0498578
-0.43234	0.0279261
-0.492339	-0.0583398
-0.442332	0.0270534
-0.502357	-0.0650491
-0.452403	0.033299
-0.512338	-0.0797222
-0.462345	0.0372537
-0.522306	-0.0941499
-0.472348	0.0379355
-0.532355	-0.10435
-0.482347	0.0444539
-0.542312	-0.118314
-0.492374	0.0577633
-0.552315	-0.124287
-0.502354	0.0638998
-0.562349	-0.134924
-0.512364	0.0762547
-0.572348	-0.13086
-0.522333	0.0880096
-0.582271	-0.130751
-0.532332	0.095728
-0.592312	-0.126796
-0.542297	0.100119
-0.602334	-0.127423
-0.552338	0.0935188
-0.612376	-0.125951
-0.562254	0.0896732
-0.622405	-0.11766
-0.57231	0.0827185
-0.632439	-0.117741
-0.582347	0.0783548
-0.642434	-0.112396
-0.59235	0.0706909
-0.652395	-0.11125
-0.602262	0.0682636
-0.66241	-0.112723
-0.612414	0.058527
-0.672428	-0.108059
-0.622459	0.056536
-0.682382	-0.10525
-0.632408	0.0554178
-0.692408	-0.111114
-0.642392	0.0499358
-0.702422	-0.106232
-0.652384	0.046063
-0.712368	-0.109696
-0.662414	0.0429538
-0.722409	-0.109178
-0.672379	0.0413174
-0.73234	-0.114741
-0.682408	0.0409901
-0.742388	-0.111469
-0.692381	0.0426811
-0.752361	-0.11395
-0.702445	0.0391083
-0.76233	-0.11665
-0.71233	0.0406901
-0.772352	-0.112641
-0.722405	0.0429538
-0.782363	-0.114141
-0.732389	0.0373355
-0.792362	-0.110078
-0.742354	0.0405265
-0.802376	-0.110514
-0.752361	0.0372264
-0.812341	-0.112887
-0.762372	0.0371173
-0.822382	-0.110023
-0.772371	0.0314717
-0.832374	-0.109068
-0.782378	0.0331081
-0.842339	-0.107596
-0.792331	0.0340627
-0.852384	-0.107214
-0.80233	0.0339808
-0.862356	-0.10705
-0.812368	0.0305171
-0.872378	-0.102632
-0.822329	0.0372264
-0.882374	-0.101132
-0.832359	0.0383991
-0.892385	-0.0927317
-0.842362	0.026017
-0.902307	-0.0907952
-0.852391	0.0223351
-0.91231	-0.0868133
-0.862387	0.0239442
-0.922352	-0.0844951
-0.872401	0.0216532
-0.932389	-0.0851769
-0.882374	0.0198805
-0.942331	-0.0765312
-0.892335	0.0226078
-0.952353	-0.0788222
-0.902307	0.0214623
-0.962345	-0.0755767
-0.91231	0.0213532
-0.972325	-0.0738584
-0.922329	0.0167167
-0.982316	-0.0755221
-0.932313	0.0170713
-0.992358	-0.0756312
-0.9423	0.021026
-1.00232	-0.0781949
-0.952349	0.0168258
-1.01233	-0.0790404
-0.962364	0.0171804
-1.02244	-0.0762039
-0.972317	0.0212987
-1.0324	-0.0747312
-0.982297	0.0186532
-1.04244	-0.0783313
-0.99235	0.0203714
-1.05245	-0.0786858
-1.00233	0.0194441
-1.06238	-0.0814404
-1.01242	0.022526
-1.07233	-0.0828587
-1.02241	0.0207259
-1.08243	-0.0848769
-1.03242	0.0192259
-1.09236	-0.0873861
-1.04241	0.0191168
-1.10237	-0.0819586
-1.05242	0.0173986
-1.11233	-0.0876042
-1.06239	0.0238351
-1.12237	-0.0966045
-1.07245	0.0195259

File: CoPc_CNT_VFSWV_scans_51_50_C02.txt
Ewe/V	<I>/mA
-0.122353	0.00523936
-0.0723526	0.0239715
-0.132398	0.0106329
-0.0823938	0.0258297
-0.142359	0.0133312
-0.0923434	0.0251424
-0.152331	0.0112439
-0.102339	0.0272807
-0.162346	0.00956383
-0.112334	0.0224696
-0.172314	0.0070183
-0.122387	0.0229024
-0.182375	0.00770559
-0.13239	0.0214514
-0.192362	0.00681466
-0.14237	0.021986
-0.202461	0.00666193
-0.152358	0.0217823
-0.212414	0.0074765
-0.162349	0.0254733
-0.222452	0.000858137
-0.172352	0.0252442
-0.23242	0.00544008
-0.182336	0.0228515
-0.242443	0.00169816
-0.192366	0.0205859
-0.252446	0.00684012
-0.20243	0.0301062
-0.262433	0.00169816
-0.212426	0.0258297
-0.272444	0.00129088
-0.222509	0.0286298
-0.282409	0.00348003
-0.232459	0.0231569
-0.292397	0.00482915
-0.242423	0.0247861
-0.302419	0.000832682
-0.252465	0.022826
-0.312418	1.81148e-05
-0.262426	0.0217569
-0.322444	0.00241091
-0.272452	0.0212478
-0.332401	-0.00558204
-0.282428	0.0207641
-0.342427	-0.000160072
-0.29245	0.0236915
-0.352392	-0.00252741
-0.302476	0.0202041
-0.362429	-0.00301106
-0.312429	0.0230806
-0.372383	-0.00769482
-0.322421	0.0222914
-0.382412	-0.0114622
-0.332416	0.0278661
-0.392358	-0.00532748
-0.342389	0.0231315
-0.402384	-0.0120731
-0.352396	0.0237678
-0.412315	-0.0139823
-0.362414	0.0224442
-0.422409	-0.0117422
-0.372383	0.0286298
-0.432393	-0.0159678
-0.382359	0.0222914
-0.442332	-0.012124
-0.3924	0.0259824
-0.452396	-0.020117
-0.402388	0.0244806
-0.462406	-0.0287718
-0.412376	0.0312008
-0.472325	-0.0295609
-0.422364	0.0286043
-0.482367	-0.0363065
-0.432382	0.0337208
-0.492354	-0.0420594
-0.442393	0.0396774
-0.502354	-0.0467686
-0.452342	0.0358845
-0.512303	-0.0592671
-0.462383	0.0411029
-0.522375	-0.0679728
-0.472329	0.0479503
-0.532351	-0.0761439
-0.48237	0.0488922
-0.542305	-0.0845951
-0.492335	0.0559687
-0.552365	-0.0989009
-0.502369	0.0637325
-0.562307	-0.104247
-0.512353	0.07142
-0.572337	-0.101803
-0.522379	0.0770202
-0.582328	-0.114047
-0.532351	0.0827222
-0.592331	-0.108396
-0.542381	0.083384
-0.602334	-0.104628
-0.552308	0.0869477
-0.612414	-0.101014
-0.562315	0.0838931
-0.622417	-0.103101
-0.572318	0.0806857
-0.632462	-0.10053
-0.582302	0.0717764
-0.642442	-0.0962027
-0.592343	0.0693327
-0.652388	-0.0941662
-0.602296	0.0655144
-0.66244	-0.0999955
-0.612437	0.0586161
-0.672413	-0.0943444
-0.62239	0.0602706
-0.682397	-0.0973481
-0.63245	0.0491976
-0.692392	-0.0946753
-0.642419	0.0571651
-0.702357	-0.0972972
-0.652422	0.0471103
-0.712429	-0.0939117
-0.662425	0.0537032
-0.722398	-0.0940644
-0.672424	0.0487903
-0.732397	-0.0949299
-0.682412	0.0440302
-0.742362	-0.0960754
-0.692446	0.0440302
-0.752353	-0.0921298
-0.702434	0.0442338
-0.762337	-0.0926898
-0.712414	0.0475176
-0.772375	-0.0932753
-0.722394	0.0434956
-0.782366	-0.0942426
-0.732401	0.0483321
-0.792358	-0.0947517
-0.742396	0.046143
-0.802392	-0.0973481
-0.752445	0.0467285
-0.812353	-0.0935808
-0.762383	0.0417647
-0.822386	-0.095159
-0.772337	0.0438266
-0.83237	-0.0926135
-0.782351	0.0395246
-0.842385	-0.0924098
-0.792369	0.0400083
-0.852342	-0.0898898
-0.80235	0.0343318
-0.862337	-0.0887188
-0.812349	0.0335172
-0.872333	-0.087777
-0.822363	0.0366227
-0.882309	-0.0807259
-0.832355	0.0348409
-0.892373	-0.0777476
-0.842335	0.0307171
-0.902365	-0.0754821
-0.852365	0.0330335
-0.912356	-0.0764749
-0.862394	0.0317608
-0.922375	-0.0756348
-0.872359	0.0250915
-0.932347	-0.06586
-0.882385	0.0272807
-0.942304	-0.0662673
-0.892388	0.0257788
-0.952292	-0.0637218
-0.902349	0.026797
-0.962349	-0.0621945
-0.912333	0.0240988
-0.972317	-0.0642309
-0.922306	0.0259825
-0.982336	-0.0619145
-0.932404	0.0226224
-0.992346	-0.0636963
-0.942369	0.0220369
-1.0023	-0.0622963
-0.952265	0.0274843
-1.01231	-0.0585798
-0.962383	0.0249897
-1.02241	-0.0621945
-0.972306	0.0256006
-1.03241	-0.0609981
-0.982362	0.0242515
-1.04235	-0.0686092
-0.992327	0.0234115
-1.05244	-0.0671582
-1.00233	0.0250661
-1.06239	-0.0689401
-1.01243	0.0266188
-1.07239	-0.0677946
-1.0224	0.0240733
-1.08243	-0.0743875
-1.03244	0.0188295
-1.0924	-0.0729366
-1.0424	0.0216296
-1.10239	-0.0785622
-1.05244	0.0243279
-1.11237	-0.0796822
-1.06246	0.0238951
-1.12239	-0.0821259
-1.07245	0.0202041

File: CoPc_CNT_VFSWV_scans_52_51_C02.txt
Ewe/V	<I>/mA
-0.12247	0.0110813
-0.0724858	0.0306747
-0.132466	0.00975898
-0.0824965	0.0254564
-0.142454	0.0169925
-0.0924804	0.0237169
-0.152418	0.0151258
-0.102499	0.0249048
-0.162448	0.0144894
-0.112475	0.02692
-0.172455	0.0125166
-0.122421	0.0263261
-0.182439	0.0109681
-0.132447	0.0252655
-0.192438	0.0174804
-0.142438	0.0275776
-0.202453	0.0162289
-0.15246	0.0309292
-0.212429	0.0115408
-0.162437	0.0219351
-0.222444	0.00331032
-0.17247	0.0252655
-0.23247	0.0128348
-0.182439	0.0222957
-0.242419	0.0133227
-0.19248	0.0278534
-0.252422	0.0122621
-0.202411	0.029911
-0.262452	0.00882562
-0.212437	0.0273019
-0.272386	0.0091226
-0.22244	0.0212775
-0.282424	0.00797712
-0.232382	0.0249048
-0.292396	0.00914381
-0.242419	0.0219775
-0.302395	0.0117318
-0.252407	0.0290625
-0.312395	0.0124954
-0.262395	0.0294868
-0.322432	0.00969534
-0.272424	0.0297413
-0.332427	0.0106711
-0.282427	0.0246715
-0.342389	0.00271637
-0.292377	0.0287231
-0.352353	0.00218605
-0.302418	0.0312262
-0.362425	0.00967413
-0.312433	0.0282777
-0.372348	0.00776499
-0.322413	0.0266655
-0.382397	0.00865592
-0.332389	0.0267928
-0.392343	-0.00146253
-0.342385	0.0254139
-0.40238	-0.000741299
-0.352349	0.0320747
-0.412356	0.00333154
-0.362391	0.0308656
-0.422329	0.00271637
-0.372386	0.0339839
-0.432454	-0.000995852
-0.382408	0.0333475
-0.442453	-0.00941729
-0.392388	0.0310565
-0.452468	-0.00729602
-0.402372	0.0318414
-0.462414	-0.0138295
-0.41236	0.0308444
-0.472478	-0.0210418
-0.422356	0.0309292
-0.482427	-0.020957
-0.432454	0.0306747
-0.492423	-0.0303118
-0.442491	0.0370385
-0.502422	-0.0341513
-0.452441	0.0352354
-0.512406	-0.0352544
-0.462482	0.0379719
-0.522462	-0.0450546
-0.472409	0.0410053
-0.53242	-0.0436334
-0.482458	0.0416417
-0.542415	-0.0541761
-0.492438	0.0456721
-0.552449	-0.0592671
-0.502433	0.0474964
-0.562379	-0.0705735
-0.512444	0.0510177
-0.57242	-0.074519
-0.522432	0.0480479
-0.582404	-0.0720159
-0.532465	0.0497237
-0.592419	-0.0776585
-0.542423	0.0587391
-0.60241	-0.0779555
-0.552456	0.0557693
-0.612413	-0.0695553
-0.562387	0.0540511
-0.622424	-0.0761524
-0.572401	0.0499995
-0.632412	-0.0763433
-0.582393	0.050551
-0.642419	-0.0731614
-0.592407	0.0569148
-0.652399	-0.0763433
-0.602407	0.0497449
-0.662367	-0.0707644
-0.612391	0.0457357
-0.67242	-0.0791434
-0.622416	0.0469024
-0.682423	-0.0744342
-0.632389	0.0407507
-0.692392	-0.0756433
-0.642411	0.039287
-0.702364	-0.0747312
-0.652384	0.0331354
-0.712371	-0.0759827
-0.662402	0.0428084
-0.722367	-0.0813071
-0.672409	0.0336657
-0.732328	-0.0790586
-0.682404	0.0407507
-0.74235	-0.0736705
-0.692342	0.0331354
-0.752368	-0.0776373
-0.702372	0.0373779
-0.762356	-0.0727584
-0.712402	0.0396477
-0.772332	-0.0813283
-0.722351	0.0372931
-0.782393	-0.0780191
-0.732335	0.0390113
-0.792342	-0.0766615
-0.742365	0.0336657
-0.802299	-0.0791434
-0.752341	0.0325626
-0.812322	-0.0740948
-0.762318	0.0360627
-0.822405	-0.081095
-0.772367	0.030908
-0.832435	-0.0837466
-0.782412	0.0322232
-0.842434	-0.0750069
-0.792384	0.0280867
-0.852471	-0.0739887
-0.802315	0.0315868
-0.862474	-0.0712099
-0.812325	0.0274504
-0.872493	-0.0733736
-0.822332	0.0227836
-0.882438	-0.0747524
-0.832488	0.0235897
-0.892411	-0.0684734
-0.842483	0.0209805
-0.902471	-0.0666491
-0.852444	0.020832
-0.912413	-0.0623217
-0.862432	0.0199411
-0.92242	-0.0592035
-0.872473	0.0209593
-0.932408	-0.0589065
-0.882476	0.0189865
-0.942392	-0.0548124
-0.892434	0.0193047
-0.952395	-0.0515881
-0.902414	0.0198986
-0.962436	-0.0460092
-0.912352	0.0200259
-0.972427	-0.0549397
-0.922389	0.018435
-0.982419	-0.0514608
-0.932431	0.0183077
-0.992437	-0.0520124
-0.942399	0.0161864
-1.00242	-0.0498275
-0.952437	0.0226987
-1.01242	-0.0496153
-0.96244	0.0102681
-1.02241	-0.0565519
-0.972408	0.0136197
-1.03234	-0.0568064
-0.9824	0.016738
-1.04237	-0.0526063
-0.992395	0.0169713
-1.05238	-0.0561064
-1.00245	0.0171834
-1.06232	-0.0515457
-1.01241	0.0156137
-1.07239	-0.0594156
-1.02237	0.0182865
-1.08236	-0.0555125
-1.03239	0.0182016
-1.0924	-0.0621945
-1.04242	0.02412
-1.10239	-0.0668613
-1.05242	0.0195805
-1.11237	-0.0664158
-1.0624	0.0166531
-1.12237	-0.0672855
-1.07239	0.0209381

File: CoPc_CNT_VFSWV_scans_53_52_C02.txt
Ewe/V	<I>/mA
-0.122501	0.018527
-0.0724667	0.0181295
-0.132412	0.014464
-0.0825079	0.0184541
-0.142469	0.00764832
-0.0924804	0.0226733
-0.152449	0.0158767
-0.102468	0.0237233
-0.162425	0.00990111
-0.112494	0.0188359
-0.172482	0.00665557
-0.122463	0.0172322
-0.182439	0.0108748
-0.132462	0.0212414
-0.192438	0.00352457
-0.142499	0.0176522
-0.202422	0.0030282
-0.152453	0.0206114
-0.212414	0.00726649
-0.162437	0.019065
-0.222428	0.00726649
-0.17247	0.0232078
-0.232473	0.00839289
-0.18242	0.0230933
-0.242446	0.00419277
-0.192446	0.0174804
-0.252384	0.00572009
-0.202418	0.0271598
-0.262395	0.0141012
-0.212471	0.0253461
-0.272379	0.00522371
-0.222425	0.0195614
-0.28242	0.00627374
-0.232401	0.0162204
-0.292415	0.00810651
-0.242408	0.0193132
-0.302426	0.00539553
-0.252426	0.0229978
-0.312433	0.00688466
-0.262398	0.0236278
-0.322401	0.0081447
-0.272394	0.0182441
-0.332382	0.00722831
-0.282389	0.0197523
-0.342358	0.0030282
-0.292423	0.0238951
-0.352376	0.00541462
-0.302395	0.0252124
-0.362379	-0.00336743
-0.312376	0.0222151
-0.372356	0.000603585
-0.322409	0.030138
-0.382401	-0.00155375
-0.332435	0.0266252
-0.392373	0.00258909
-0.3424	0.0240288
-0.402395	-0.0067657
-0.352384	0.0233033
-0.412337	0.0007945
-0.362368	0.0243342
-0.422386	-0.000580083
-0.372363	0.0230551
-0.432488	-0.00266105
-0.382378	0.0232842
-0.442472	-0.00201194
-0.392362	0.0293171
-0.452456	-0.0110804
-0.402388	0.0280189
-0.462505	-0.0134095
-0.412364	0.0304626
-0.472455	-0.0161396
-0.422394	0.0315126
-0.482423	-0.0167123
-0.432427	0.0292407
-0.492411	-0.0217334
-0.442469	0.0329635
-0.502437	-0.0216952
-0.45246	0.0298516
-0.512467	-0.028549
-0.462444	0.0271598
-0.52242	-0.0361283
-0.472478	0.0311499
-0.532385	-0.035441
-0.482465	0.0341472
-0.54243	-0.0465331
-0.492507	0.0344336
-0.552437	-0.0526997
-0.502441	0.0379464
-0.562368	-0.0558498
-0.512482	0.0432729
-0.572386	-0.058828
-0.522474	0.0427383
-0.58245	-0.0615008
-0.532427	0.0457548
-0.592449	-0.0650136
-0.542445	0.0436356
-0.602384	-0.0676101
-0.552449	0.0457548
-0.612432	-0.067591
-0.562425	0.0465757
-0.622394	-0.0638872
-0.572394	0.0489049
-0.632412	-0.0687556
-0.582412	0.0485421
-0.642392	-0.0578162
-0.592445	0.046633
-0.652376	-0.0642118
-0.602449	0.0417074
-0.66239	-0.0630472
-0.612425	0.0490576
-0.672397	-0.0613099
-0.622416	0.0419556
-0.682416	-0.0627227
-0.632435	0.0420511
-0.692357	-0.06572
-0.642369	0.0379846
-0.702376	-0.0569952
-0.652399	0.0387864
-0.712387	-0.0608135
-0.662383	0.0426047
-0.722325	-0.0604699
-0.672432	0.0402946
-0.732374	-0.0648036
-0.6824	0.0338608
-0.742338	-0.0654527
-0.692346	0.0383091
-0.752406	-0.0663309
-0.702341	0.0357891
-0.762325	-0.0658918
-0.712383	0.0376219
-0.772382	-0.0672855
-0.722355	0.03682
-0.782393	-0.0666173
-0.732381	0.0344718
-0.79235	-0.0653
-0.742342	0.0314935
-0.802322	-0.0657009
-0.752391	0.0352545
-0.812348	-0.0620163
-0.762371	0.031799
-0.822351	-0.0679155
-0.77239	0.0291644
-0.832393	-0.0672855
-0.782358	0.0299853
-0.842384	-0.0680683
-0.792319	0.0252888
-0.852418	-0.0682592
-0.802349	0.0279234
-0.862421	-0.0627227
-0.812291	0.0225587
-0.872458	-0.0614626
-0.822393	0.0245442
-0.882507	-0.0582935
-0.832461	0.0260143
-0.892453	-0.0588471
-0.842483	0.0206114
-0.902418	-0.0574725
-0.852479	0.0213369
-0.912436	-0.0542652
-0.862474	0.0188168
-0.922435	-0.0520124
-0.87242	0.0198096
-0.932415	-0.0511342
-0.882412	0.0190077
-0.942373	-0.0466668
-0.892384	0.0145403
-0.952395	-0.0497405
-0.902425	0.0131657
-0.962379	-0.0485377
-0.912482	0.0152467
-0.97245	-0.0446431
-0.922485	0.0118866
-0.982392	-0.0445858
-0.932427	0.0133948
-0.992388	-0.0475641
-0.942353	0.017194
-1.00235	-0.044624
-0.952406	0.0173849
-1.01236	-0.0475641
-0.962379	0.0181104
-1.02238	-0.0436312
-0.972443	0.0160676
-1.0324	-0.0475641
-0.982446	0.0176522
-1.04238	-0.0486523
-0.992365	0.0189886
-1.05238	-0.0462659
-1.00241	0.0201914
-1.0624	-0.0491868
-1.01237	0.0154185
-1.07238	-0.0524897
-1.02239	0.0143876
-1.08236	-0.0524515
-1.03239	0.0183013
-1.09235	-0.0571862
-1.04241	0.0184732
-1.10234	-0.0547806
-1.05239	0.0157431
-1.11238	-0.0591526
-1.06239	0.0139485
-1.1224	-0.0617681
-1.07239	0.0166404

File: CoPc_CNT_VFSWV_scans_54_53_C02.txt
Ewe/V	<I>/mA
-0.122467	0.0192143
-0.0725163	0.0353222
-0.132496	0.0214722
-0.082485	0.0312436
-0.142465	0.0184523
-0.0925109	0.0332048
-0.152491	0.0141134
-0.102514	0.0379082
-0.162456	0.0198582
-0.112506	0.0344544
-0.172448	0.0224962
-0.122455	0.030827
-0.182454	0.0219929
-0.132477	0.028189
-0.192427	0.0245269
-0.142461	0.0322155
-0.20246	0.0169077
-0.152472	0.0265922
-0.212406	0.0206565
-0.162471	0.0269393
-0.222463	0.0223227
-0.172463	0.0262277
-0.232462	0.0208301
-0.182424	0.0290047
-0.242396	0.0173589
-0.192431	0.0301155
-0.252426	0.0205697
-0.202445	0.0312956
-0.262475	0.0144084
-0.212429	0.0300113
-0.272444	0.0221491
-0.222489	0.0309138
-0.282431	0.0160052
-0.232435	0.0314171
-0.292465	0.006633
-0.242385	0.0262451
-0.302479	0.0154324
-0.252399	0.0249434
-0.312418	0.00784791
-0.262395	0.0237111
-0.322413	0.00800411
-0.272394	0.024388
-0.332416	0.00494949
-0.282424	0.0238326
-0.342392	0.00835123
-0.29243	0.0273212
-0.352392	0.00427261
-0.302441	0.0202573
-0.362376	0.00633795
-0.312437	0.0264881
-0.37239	0.0140613
-0.322375	0.0289179
-0.382412	0.0124472
-0.332389	0.031799
-0.392388	0.00885455
-0.342438	0.0285014
-0.402395	0.00875042
-0.352376	0.0325626
-0.412345	0.0060429
-0.362433	0.0319378
-0.422428	0.00135683
-0.372413	0.0316081
-0.432511	0.000957644
-0.382397	0.0287096
-0.442495	-0.000361399
-0.392411	0.0268526
-0.452479	-0.00317305
-0.402395	0.0226351
-0.462475	-0.00608883
-0.412395	0.026679
-0.472462	-0.0134998
-0.422382	0.0277551
-0.482477	-0.0100807
-0.432465	0.0286576
-0.492434	-0.0134824
-0.442469	0.0303411
-0.502426	-0.0170924
-0.452468	0.031313
-0.51241	-0.0240695
-0.462448	0.0324585
-0.522493	-0.0259266
-0.47247	0.0340552
-0.532435	-0.0267943
-0.48242	0.0370751
-0.542495	-0.0279572
-0.492449	0.036433
-0.552487	-0.0309077
-0.502514	0.045996
-0.562436	-0.0306473
-0.512486	0.0450415
-0.572435	-0.0467188
-0.522428	0.0431497
-0.58245	-0.0425014
-0.532488	0.0432712
-0.592453	-0.0469271
-0.542438	0.0451803
-0.602418	-0.0495652
-0.552456	0.0483391
-0.612421	-0.0484544
-0.562432	0.0424902
-0.622413	-0.0522901
-0.572466	0.0461175
-0.632412	-0.0493049
-0.582454	0.04492
-0.642407	-0.0542166
-0.59243	0.0421951
-0.652372	-0.0498255
-0.602452	0.0416224
-0.662394	-0.0532967
-0.612452	0.0447117
-0.672451	-0.0541471
-0.622382	0.0392793
-0.682435	-0.0526198
-0.632393	0.0392793
-0.692399	-0.0529322
-0.6424	0.0437745
-0.702441	-0.0518215
-0.652368	0.0416397
-0.712394	-0.048871
-0.662394	0.037509
-0.722336	-0.0530711
-0.672405	0.0397132
-0.732366	-0.050728
-0.682389	0.0439307
-0.742403	-0.0491313
-0.69243	0.0358602
-0.752368	-0.0490098
-0.702384	0.0401992
-0.762398	-0.0549976
-0.712417	0.0403207
-0.772443	-0.0540777
-0.722386	0.0342635
-0.782354	-0.0557612
-0.732412	0.0366065
-0.792369	-0.0549976
-0.742411	0.0373008
-0.802376	-0.0531405
-0.752372	0.0333957
-0.812344	-0.0578092
-0.762341	0.0329097
-0.822351	-0.0544769
-0.772325	0.0317295
-0.832457	-0.0520471
-0.782381	0.0283104
-0.842407	-0.0499644
-0.792289	0.0329618
-0.852464	-0.0512661
-0.802341	0.0310527
-0.862413	-0.0492875
-0.812364	0.0278765
-0.872466	-0.0484197
-0.822401	0.0271997
-0.882412	-0.0426055
-0.83248	0.0278765
-0.89246	-0.045261
-0.842449	0.0326494
-0.902441	-0.0408005
-0.852425	0.0253252
-0.912432	-0.0399154
-0.862463	0.0261583
-0.922389	-0.0362186
-0.872431	0.024145
-0.932434	-0.0368087
-0.882511	0.0228086
-0.942415	-0.0329036
-0.892464	0.0181052
-0.952391	-0.0357326
-0.902421	0.0248219
-0.96239	-0.0337714
-0.912455	0.0291088
-0.972397	-0.0318102
-0.922428	0.0235029
-0.98245	-0.0324176
-0.932442	0.0244227
-0.992399	-0.0343788
-0.942479	0.0235202
-1.00242	-0.0329383
-0.952391	0.0246657
-1.01241	-0.0291027
-0.962444	0.0251517
-1.02237	-0.0308035
-0.972412	0.0286576
-1.03243	-0.0237397
-0.982419	0.0251517
-1.04237	-0.0322614
-0.992411	0.0254641
-1.05238	-0.0344656
-1.00238	0.0216458
-1.06237	-0.0345177
-1.01233	0.0244401
-1.07241	-0.0392385
-1.02244	0.0230516
-1.08237	-0.037069
-1.03243	0.0268178
-1.09236	-0.0415989
-1.04238	0.0228086
-1.10244	-0.0444626
-1.05244	0.0230343
-1.11236	-0.0450874
-1.06242	0.0194937
-1.12236	-0.041165
-1.0724	0.029803