Folder: ElectrochemLabUtils/VFSWV_data_prep/Example_data/CoPc_VFSWV_txt_data (part 11)

File: CoPc_CNT_VFSWV_scans_61_60_C02.txt
Ewe/V	<I>/mA
-0.122599	0.0179924
-0.0726146	0.0272219
-0.132553	0.0216707
-0.0826253	0.0264289
-0.142605	0.023903
-0.0925825	0.0338794
-0.152608	0.0263995
-0.102616	0.0264583
-0.162642	0.0166482
-0.112627	0.0259492
-0.172622	0.0162174
-0.122614	0.0248624
-0.182629	0.0192623
-0.132599	0.0271926
-0.192582	0.0183028
-0.142594	0.0250386
-0.202555	0.0180678
-0.152589	0.0237169
-0.212558	0.0185574
-0.162608	0.0245687
-0.222614	0.0196833
-0.172603	0.0233938
-0.232583	0.0178133
-0.182606	0.0283478
-0.242556	0.0194874
-0.192598	0.0252442
-0.252562	0.0190077
-0.202605	0.0239715
-0.2626	0.0215239
-0.212608	0.026096
-0.272569	0.0192427
-0.222572	0.0212106
-0.282564	0.019135
-0.232549	0.0251561
-0.292533	0.0222777
-0.242537	0.0271436
-0.302543	0.0169517
-0.252528	0.0247547
-0.312596	0.0147489
-0.262566	0.0205448
-0.322614	0.0116942
-0.272603	0.0227868
-0.332518	0.0124481
-0.282549	0.0236092
-0.342552	0.0110676
-0.29254	0.0216707
-0.352524	0.0129083
-0.302551	0.0228358
-0.362546	0.0114397
-0.31255	0.0174021
-0.372511	0.0150719
-0.32258	0.0192427
-0.38248	0.00950117
-0.332522	0.0201826
-0.392494	0.0106467
-0.342498	0.0201728
-0.402509	0.00768993
-0.35252	0.021749
-0.4125	0.00698501
-0.362554	0.0216316
-0.422504	0.00581995
-0.372576	0.022591
-0.432491	0.00890395
-0.382514	0.0212106
-0.442517	0.0095697
-0.392521	0.0235407
-0.452616	0.00338212
-0.402528	0.0170496
-0.462581	0.0011401
-0.41252	0.0189588
-0.472649	0.00045477
-0.422557	0.018293
-0.482575	-0.00147395
-0.432491	0.0186846
-0.492616	-0.00144458
-0.442498	0.0222973
-0.502585	-0.00404885
-0.452608	0.0205938
-0.512527	-0.00122919
-0.462604	0.0203588
-0.522584	-0.00423487
-0.472584	0.0233645
-0.53259	-0.00696641
-0.482568	0.0247743
-0.542563	-0.00865037
-0.492594	0.025861
-0.552535	-0.0122826
-0.502585	0.0276331
-0.562561	-0.0135554
-0.512611	0.0313535
-0.572572	-0.0108141
-0.522557	0.0196343
-0.582548	-0.0188031
-0.532617	0.0251072
-0.592593	-0.0248242
-0.542555	0.0269967
-0.602547	-0.0254019
-0.552589	0.0240694
-0.61258	-0.0243347
-0.562607	0.0349564
-0.622549	-0.0219458
-0.57253	0.0270359
-0.632583	-0.0242955
-0.582541	0.0214064
-0.642536	-0.0272719
-0.592574	0.0238932
-0.652547	-0.0229543
-0.602558	0.0229239
-0.662554	-0.028946
-0.612554	0.0200161
-0.672557	-0.0236396
-0.622538	0.0283282
-0.682522	-0.0264984
-0.632537	0.0271044
-0.692525	-0.0245697
-0.642536	0.0234134
-0.702516	-0.0235711
-0.652516	0.0268107
-0.712512	-0.0254998
-0.662523	0.021191
-0.722473	-0.0261655
-0.672553	0.0259492
-0.732472	-0.0282117
-0.682552	0.024833
-0.742463	-0.0233948
-0.692555	0.0204273
-0.752489	-0.0255683
-0.702558	0.0253617
-0.762477	-0.0253333
-0.71247	0.0251953
-0.772515	-0.0241976
-0.722541	0.0210735
-0.782487	-0.0253138
-0.732468	0.0192427
-0.792471	-0.0282607
-0.742471	0.025861
-0.802466	-0.0266355
-0.752505	0.0219057
-0.812512	-0.0276047
-0.762519	0.0216316
-0.822423	-0.0277222
-0.772499	0.0180287
-0.83246	-0.0252256
-0.782506	0.0175685
-0.842479	-0.0248242
-0.792429	0.0164034
-0.852531	-0.0233459
-0.802478	0.0214651
-0.862538	-0.0259403
-0.812424	0.0198986
-0.872579	-0.0239039
-0.822457	0.0197616
-0.882556	-0.020771
-0.832483	0.0173433
-0.892551	-0.0236885
-0.842421	0.0176762
-0.902608	-0.0209766
-0.852566	0.0192525
-0.912553	-0.0182744
-0.862607	0.0166482
-0.922553	-0.0170408
-0.872572	0.0188217
-0.932579	-0.00939445
-0.882514	0.0138481
-0.942559	-0.0171485
-0.892574	0.0155908
-0.952546	-0.0136533
-0.902505	0.0153265
-0.962538	-0.0171093
-0.912565	0.0125558
-0.972537	-0.0147107
-0.922556	0.0140635
-0.982563	-0.0161695
-0.932506	0.0154342
-0.992509	-0.0174031
-0.94254	0.0134957
-1.00251	-0.0150533
-0.952554	0.011753
-1.01251	-0.0172954
-0.962557	0.0102452
-1.02252	-0.0184506
-0.972526	0.0149055
-1.03249	-0.0161499
-0.982544	0.0190567
-1.04249	-0.00998187
-0.992536	0.0180385
-1.05251	-0.0195472
-1.00253	0.015679
-1.06253	-0.0190674
-1.01252	0.0184203
-1.07252	-0.017824
-1.02248	0.0166482
-1.08248	-0.0179709
-1.03249	0.0155125
-1.09249	-0.0193709
-1.04257	0.01236
-1.10252	-0.0202815
-1.05252	0.0147391
-1.11242	-0.0229249
-1.06247	0.0134663
-1.12245	-0.0237669
-1.07251	0.015258

File: CoPc_CNT_VFSWV_scans_62_61_C02.txt
Ewe/V	<I>/mA
-0.122622	0.00222292
-0.0726298	0.0175083
-0.132618	0.0110079
-0.0826367	0.0180299
-0.142624	0.013392
-0.0925673	0.0182254
-0.152574	0.00987177
-0.102582	0.0191102
-0.162596	0.00912674
-0.112619	0.0171451
-0.172573	0.0104678
-0.122622	0.0184024
-0.182606	0.0098904
-0.132614	0.0202836
-0.192601	0.0177784
-0.142628	0.0180299
-0.202555	0.0102909
-0.152563	0.0196689
-0.21255	0.0120044
-0.162585	0.0188121
-0.222614	0.0121069
-0.172588	0.015683
-0.232587	0.00611868
-0.182625	0.0160648
-0.242563	0.00535502
-0.192582	0.0149659
-0.252547	0.00955513
-0.202555	0.0139601
-0.262573	0.00476831
-0.212581	0.0150497
-0.27258	0.00793469
-0.222584	0.018719
-0.282564	0.0135504
-0.23261	0.0159624
-0.292556	0.00799057
-0.242613	0.0175456
-0.302589	0.00784156
-0.252589	0.0248003
-0.312531	0.0101418
-0.262562	0.0162883
-0.322553	0.0108496
-0.272603	0.0200694
-0.33251	0.0199669
-0.282514	0.0187004
-0.342506	0.011306
-0.292533	0.0174152
-0.352555	0.00867041
-0.302559	0.0180112
-0.36255	0.00622112
-0.312569	0.0163349
-0.372519	0.00503838
-0.322614	0.0160555
-0.38253	0.00560647
-0.332518	0.0173314
-0.392536	0.0124887
-0.342567	0.0203581
-0.402539	0.0084469
-0.35252	0.0193895
-0.412565	0.00667745
-0.362539	0.0186352
-0.422503	0.00579273
-0.372477	0.0205816
-0.432529	0.0039674
-0.382514	0.0176946
-0.442502	0.00366939
-0.392517	0.0189891
-0.452566	0.00317581
-0.402555	0.0181137
-0.462634	0.000372626
-0.412539	0.0173128
-0.472637	-0.000940491
-0.422504	0.0187283
-0.482529	0.000633387
-0.432526	0.0207585
-0.492609	-0.00760852
-0.442456	0.0184676
-0.502566	-0.004051
-0.452574	0.01735
-0.512554	-0.00654685
-0.462569	0.0204978
-0.522549	-0.00963873
-0.472587	0.0210379
-0.532571	-0.0112312
-0.48259	0.0188121
-0.542548	-0.0143045
-0.492574	0.0267002
-0.552562	-0.0130286
-0.502639	0.0211869
-0.562531	-0.00937797
-0.51255	0.0312728
-0.572557	-0.0088192
-0.522549	0.0203767
-0.582575	-0.0144442
-0.53259	0.0265512
-0.59254	-0.0182997
-0.542613	0.0251449
-0.602528	-0.0158504
-0.552562	0.0254615
-0.612512	-0.0148446
-0.562535	0.0310865
-0.622519	-0.0151892
-0.572542	0.0269609
-0.632518	-0.0183649
-0.582602	0.027529
-0.64254	-0.0182625
-0.592479	0.0292053
-0.652516	-0.0199108
-0.602528	0.0285907
-0.662508	-0.0206652
-0.612512	0.0263556
-0.672515	-0.0218479
-0.622534	0.0243161
-0.682533	-0.0245487
-0.632541	0.0253219
-0.692513	-0.0176385
-0.642548	0.0256571
-0.702474	-0.0174895
-0.652573	0.0259924
-0.712481	-0.0219224
-0.662496	0.0216991
-0.72245	-0.0162136
-0.672534	0.0220623
-0.732464	-0.0236081
-0.682472	0.0212894
-0.742456	-0.0233194
-0.692551	0.0245303
-0.752524	-0.0192776
-0.702467	0.0268305
-0.762481	-0.0238688
-0.7125	0.0239249
-0.772434	-0.0157759
-0.722495	0.0272869
-0.782502	-0.0136246
-0.732491	0.0261414
-0.792452	-0.015748
-0.742513	0.0273614
-0.802516	-0.0199853
-0.752493	0.0293823
-0.812485	-0.0147515
-0.762485	0.0270075
-0.822526	-0.0188678
-0.772503	0.0234406
-0.832464	-0.0190261
-0.782468	0.0233289
-0.842471	-0.0174336
-0.792429	0.0279667
-0.852539	-0.0169028
-0.802486	0.022053
-0.862569	-0.00829767
-0.812447	0.0248096
-0.87253	-0.0127399
-0.822469	0.0248935
-0.882525	-0.0126375
-0.832468	0.0201905
-0.892532	-0.012265
-0.842479	0.0174245
-0.902558	-0.0112312
-0.852608	0.0216433
-0.912557	-0.0168376
-0.862561	0.0205723
-0.922534	-0.0116876
-0.872534	0.0204233
-0.932514	-0.0120694
-0.882548	0.0205816
-0.942498	-0.0120228
-0.892555	0.022677
-0.952508	-0.00721738
-0.902543	0.0233475
-0.96253	-0.00829767
-0.91255	0.0215036
-0.972503	-0.0137085
-0.922545	0.019017
-0.982552	-0.00612777
-0.932537	0.0215129
-0.99254	-0.00814867
-0.942543	0.018421
-1.00254	-0.0100857
-0.952489	0.0178343
-1.01243	-0.0116969
-0.962523	0.0175828
-1.0225	-0.012386
-0.972518	0.0158879
-1.03247	-0.0124233
-0.982544	0.0169868
-1.04252	-0.0116131
-0.992555	0.0192498
-1.05249	-0.0128703
-1.0025	0.0163349
-1.06245	-0.0116131
-1.01255	0.0184769
-1.07249	-0.0118738
-1.02253	0.0156085
-1.08246	-0.0168469
-1.03255	0.0143699
-1.09247	-0.0194825
-1.04247	0.016009
-1.10251	-0.0199667
-1.05252	0.0160928
-1.11246	-0.0205255
-1.06242	0.0164839
-1.12246	-0.021522
-1.07252	0.0140998

File: CoPc_CNT_VFSWV_scans_63_62_C02.txt
Ewe/V	<I>/mA
-0.12268	0.0276909
-0.0726955	0.0350098
-0.132664	0.0270608
-0.0827176	0.0340899
-0.142633	0.0302369
-0.0926863	0.0325366
-0.152647	0.0280154
-0.102716	0.0321114
-0.162647	0.0269914
-0.112692	0.0293171
-0.17265	0.0247959
-0.122653	0.0330833
-0.182634	0.0245963
-0.132641	0.0308097
-0.192648	0.0258025
-0.142675	0.0277117
-0.202632	0.0248913
-0.152663	0.0345412
-0.212635	0.0256637
-0.16265	0.0253339
-0.222669	0.0232859
-0.172638	0.029508
-0.232614	0.0257244
-0.18263	0.0372487
-0.242614	0.0250909
-0.192614	0.0340292
-0.25264	0.0229996
-0.202617	0.0347061
-0.262604	0.0208561
-0.212635	0.0340813
-0.272676	0.0242752
-0.222649	0.0299506
-0.282698	0.0269046
-0.232584	0.0324672
-0.292732	0.0240496
-0.242579	0.0366846
-0.302693	0.0250649
-0.252613	0.0357301
-0.3127	0.0235376
-0.262593	0.0291262
-0.322688	0.0273125
-0.272688	0.0359383
-0.332656	0.0241971
-0.282725	0.029751
-0.342644	0.0225917
-0.292671	0.0299592
-0.352712	0.0235116
-0.302727	0.029508
-0.36265	0.0242839
-0.312696	0.0282844
-0.372653	0.017975
-0.322695	0.0315386
-0.382687	0.0209342
-0.332649	0.0305146
-0.39264	0.0194503
-0.342667	0.0296989
-0.402666	0.0194329
-0.352609	0.0317903
-0.412646	0.0196933
-0.362684	0.0327449
-0.422565	0.0196759
-0.372672	0.034359
-0.432614	0.0191292
-0.382668	0.0333436
-0.442621	0.0174891
-0.392667	0.0298291
-0.452651	0.0162828
-0.402639	0.0316254
-0.462673	0.0175585
-0.41265	0.0342027
-0.472634	0.0152936
-0.42268	0.0324064
-0.482641	0.0145733
-0.432664	0.0325106
-0.492655	0.0115534
-0.442606	0.032363
-0.50262	0.0109806
-0.452708	0.0252298
-0.512646	0.00438542
-0.462631	0.033144
-0.5226	0.004316
-0.472611	0.0326928
-0.532622	0.00583463
-0.482668	0.0342288
-0.54264	0.00461105
-0.492644	0.0398868
-0.552612	0.00407302
-0.502597	0.0370751
-0.562596	-0.00102092
-0.512612	0.0289179
-0.572557	-0.00316437
-0.522546	0.0383508
-0.582549	-0.00344206
-0.532637	0.0328316
-0.59259	-0.00953396
-0.542579	0.0312349
-0.602555	-0.0097162
-0.552589	0.0327015
-0.612577	-0.00423175
-0.562558	0.0344631
-0.622538	-0.0064533
-0.572607	0.0345152
-0.63258	-0.00755539
-0.58258	0.0350966
-0.642556	-0.00589791
-0.592602	0.0366846
-0.652555	-0.00799797
-0.602574	0.0373789
-0.662531	-0.00240939
-0.612531	0.0352007
-0.672554	-0.00194078
-0.622573	0.0342201
-0.682618	-0.00442267
-0.632534	0.0408847
-0.692632	-0.00689587
-0.642521	0.0364243
-0.70265	-0.00181929
-0.652494	0.0349057
-0.712592	-0.00562022
-0.662516	0.038802
-0.722649	-0.00573303
-0.672542	0.0389669
-0.732602	-0.00606279
-0.682633	0.0359123
-0.74259	-0.00410158
-0.692651	0.0374917
-0.752616	-0.00677438
-0.702605	0.0368582
-0.762604	-0.00444002
-0.712592	0.0389496
-0.772637	-0.002878
-0.722653	0.0346887
-0.782598	-0.00697397
-0.732671	0.0378909
-0.792602	-0.0107923
-0.742644	0.0311915
-0.802563	-0.00365901
-0.752593	0.0364503
-0.812569	-0.00647933
-0.762638	0.0324672
-0.822592	-0.00996786
-0.772645	0.0336213
-0.832572	-0.00443134
-0.782576	0.0343763
-0.842582	-0.00706075
-0.792533	0.0327969
-0.852543	-0.00911742
-0.802597	0.0374656
-0.862569	-0.00616693
-0.81255	0.0308704
-0.872599	-0.00489127
-0.822584	0.0303671
-0.882545	-0.00425779
-0.832606	0.0292737
-0.892556	-0.0042144
-0.842601	0.0296208
-0.902563	-0.00550741
-0.852627	0.0298378
-0.912543	-0.00180193
-0.862581	0.0286662
-0.922546	-2.29603e-05
-0.872603	0.0277464
-0.932591	-0.00221847
-0.882591	0.0278939
-0.942536	-0.00219244
-0.892575	0.0280675
-0.952505	-0.00398009
-0.902551	0.0266356
-0.962535	-0.000422145
-0.912577	0.028241
-0.972507	-0.00133333
-0.922561	0.026436
-0.982583	0.00524454
-0.932572	0.0318684
-0.992498	0.00594745
-0.942521	0.0219582
-1.00258	-6.635e-05
-0.952631	0.0253426
-1.01257	-0.001854
-0.962531	0.0228086
-1.0225	-0.00320776
-0.972557	0.0252819
-1.03257	0.00461105
-0.98253	0.0331093
-1.04256	-0.00141143
-0.992575	0.027434
-1.05253	-0.001342
-1.00257	0.0276075
-1.06251	-0.00624503
-1.01255	0.0245182
-1.07249	-0.00454416
-1.0225	0.0317556
-1.08253	-0.00404084
-1.03252	0.0332742
-1.09261	-0.00364165
-1.04261	0.0303931
-1.10263	-0.00435324
-1.05251	0.0266964
-1.11258	-0.0011858
-1.06251	0.0358602
-1.12258	-0.00549005
-1.07251	0.0292563

File: CoPc_CNT_VFSWV_scans_64_63_C02.txt
Ewe/V	<I>/mA
-0.122611	0.0158542
-0.0727031	0.0272419
-0.132641	0.0230418
-0.0826451	0.0276902
-0.142652	0.0230086
-0.0926367	0.0297819
-0.152636	0.0250506
-0.102663	0.0284123
-0.162616	0.0237972
-0.11262	0.0319816
-0.17263	0.0247351
-0.122646	0.0273166
-0.182599	0.0236976
-0.132645	0.0230086
-0.192633	0.020892
-0.142633	0.0258142
-0.202613	0.020701
-0.152628	0.0271921
-0.212604	0.0201698
-0.162639	0.0285036
-0.222646	0.0194144
-0.172634	0.0257312
-0.232614	0.0188832
-0.182595	0.0264451
-0.24256	0.0181195
-0.192644	0.0256067
-0.252552	0.0184599
-0.202609	0.0244446
-0.262593	0.0203773
-0.212597	0.0264285
-0.272691	0.0200453
-0.222619	0.026636
-0.282714	0.016725
-0.232557	0.0239632
-0.292648	0.0182358
-0.242621	0.0236063
-0.302651	0.0202777
-0.252609	0.0273498
-0.312623	0.0150981
-0.262601	0.0231912
-0.322661	0.0239632
-0.272684	0.026885
-0.332664	0.0176962
-0.28266	0.0253494
-0.342709	0.016833
-0.29269	0.0235565
-0.352666	0.016833
-0.302662	0.0220374
-0.362726	0.0166088
-0.312681	0.0241624
-0.372722	0.0161772
-0.322695	0.0252332
-0.382687	0.0173891
-0.332652	0.0235648
-0.392613	0.0155464
-0.342697	0.0256565
-0.402662	0.0151313
-0.352659	0.0235814
-0.412635	0.0138032
-0.362681	0.025117
-0.422634	0.0171816
-0.372676	0.0236976
-0.432607	0.013853
-0.382679	0.0155796
-0.442636	0.0104166
-0.392652	0.0200536
-0.452605	0.00953671
-0.402639	0.0238636
-0.462639	0.0110557
-0.412635	0.0268767
-0.472649	0.00971932
-0.42263	0.0298483
-0.482549	0.0109561
-0.432599	0.0209501
-0.492594	0.00286301
-0.442651	0.0237806
-0.502597	0.00702992
-0.452639	0.0205184
-0.512635	0.00882286
-0.462631	0.0313507
-0.522642	0.00771887
-0.472596	0.0359825
-0.532572	0.00229027
-0.482576	0.0293503
-0.542594	0.00463105
-0.492644	0.0325377
-0.552628	0.000223417
-0.502616	0.032546
-0.562577	0.00308713
-0.512589	0.033235
-0.572615	0.00102028
-0.522558	0.0351026
-0.582557	-0.0013952
-0.532595	0.0305207
-0.592556	-0.00472375
-0.542567	0.0353267
-0.602559	-0.0040514
-0.552551	0.0359078
-0.612554	-0.00769537
-0.562574	0.0355342
-0.622535	-0.0146015
-0.572584	0.0322721
-0.632591	-0.0157802
-0.582568	0.0238553
-0.642548	-0.0124765
-0.592583	0.0254656
-0.652559	-0.0150995
-0.602525	0.0272087
-0.662535	-0.0139125
-0.612593	0.0240877
-0.672561	-0.013041
-0.622515	0.0251585
-0.682667	-0.0147011
-0.632538	0.0224608
-0.692674	-0.0159047
-0.642521	0.0265447
-0.702631	-0.0171166
-0.652574	0.0249593
-0.712619	-0.0136801
-0.662535	0.0250672
-0.722664	-0.0157636
-0.672561	0.032712
-0.732637	-0.0161537
-0.682663	0.0236395
-0.742636	-0.0145932
-0.692697	0.023847
-0.752616	-0.0199139
-0.702631	0.0201947
-0.762627	-0.0203787
-0.71265	0.0217054
-0.772592	-0.0206443
-0.722611	0.0235316
-0.78266	-0.0233503
-0.732618	0.0209501
-0.792579	-0.0239314
-0.74259	0.020286
-0.802608	-0.0192332
-0.752574	0.0169326
-0.812558	-0.0185941
-0.762612	0.018518
-0.822599	-0.020993
-0.772561	0.0205018
-0.832598	-0.0210843
-0.782598	0.0179369
-0.842579	-0.0168095
-0.792605	0.0165258
-0.85257	-0.0229104
-0.802597	0.0135957
-0.862588	-0.0175814
-0.812615	0.0104249
-0.872607	-0.0174486
-0.822614	0.0141353
-0.882583	-0.0225286
-0.832648	0.0153886
-0.892517	-0.0164691
-0.842582	0.015895
-0.902589	-0.0159379
-0.852612	0.0136621
-0.912516	-0.0161039
-0.862589	0.0101178
-0.922565	-0.0179051
-0.872584	0.0110806
-0.932575	-0.013954
-0.882556	0.0119688
-0.94254	-0.0113476
-0.892567	0.0119107
-0.952604	-0.0171747
-0.902566	0.0118194
-0.962501	-0.0140702
-0.912554	0.00663149
-0.972588	-0.011331
-0.922534	0.0140688
-0.982579	-0.0186356
-0.932595	0.0116866
-0.992552	-0.0119619
-0.942559	0.0102672
-1.00253	-0.0156972
-0.952562	0.0100098
-1.01254	-0.0213831
-0.962504	0.00864024
-1.02256	-0.0163446
-0.972534	0.00755286
-1.03256	-0.0154066
-0.982556	0.0130894
-1.04254	-0.0149833
-0.992548	0.0101759
-1.0525	-0.0177142
-1.00255	0.0124834
-1.06248	-0.01837
-1.01253	0.015206
-1.07248	-0.0152987
-1.0225	0.0135708
-1.08249	-0.0122192
-1.03251	0.014625
-1.0926	-0.015996
-1.04252	0.0127241
-1.10259	-0.0141035
-1.0525	0.0162436
-1.11261	-0.0187684
-1.06252	0.014874
-1.12255	-0.019366
-1.07247	0.0131475

File: CoPc_CNT_VFSWV_scans_65_64_C02.txt
Ewe/V	<I>/mA
-0.122653	0.0124559
-0.072707	0.0213221
-0.132702	0.0179869
-0.0826794	0.0243923
-0.14269	0.0197324
-0.0926711	0.0231533
-0.15264	0.0193973
-0.10267	0.0217195
-0.162654	0.0165609
-0.11265	0.0184778
-0.172634	0.0145271
-0.12265	0.0227637
-0.182599	0.0194597
-0.132676	0.0193194
-0.192602	0.0248442
-0.142694	0.023878
-0.202685	0.0224286
-0.152674	0.0233247
-0.212639	0.0241351
-0.162688	0.0258884
-0.222623	0.0122595
-0.17263	0.0217506
-0.232645	0.0155635
-0.18263	0.0230909
-0.242564	0.0160622
-0.192629	0.0190856
-0.252624	0.0113789
-0.202666	0.0268547
-0.262582	0.0147608
-0.212624	0.0229039
-0.272703	0.0161791
-0.222634	0.0282106
-0.282752	0.0217584
-0.232656	0.0232546
-0.292705	0.0130465
-0.242629	0.0216493
-0.302693	0.0128751
-0.252613	0.0187272
-0.312681	0.0148388
-0.262623	0.0199272
-0.322703	0.0156959
-0.272707	0.0208156
-0.332675	0.0131868
-0.282721	0.0204181
-0.342709	0.0113166
-0.292694	0.0188908
-0.352704	0.0136855
-0.302674	0.0192181
-0.362673	0.00542553
-0.312681	0.0146595
-0.372691	0.0119322
-0.322703	0.0156881
-0.382664	0.00747494
-0.33266	0.0196779
-0.392625	0.0119634
-0.342655	0.0221169
-0.402651	0.00858146
-0.352723	0.0174726
-0.412642	0.0122517
-0.362662	0.0182207
-0.422603	0.0117686
-0.372695	0.0212286
-0.432637	0.00777884
-0.382694	0.0209948
-0.442663	0.00878406
-0.392682	0.0238546
-0.45262	0.00780222
-0.402674	0.0229818
-0.4626	0.00989838
-0.412616	0.0237845
-0.472619	0.00577619
-0.422626	0.0215325
-0.482591	0.00791911
-0.432641	0.0213299
-0.492629	0.00738143
-0.442644	0.0276573
-0.502609	0.00167738
-0.452609	0.0257014
-0.512596	0.00159946
-0.462642	0.0233091
-0.5226	0.00205142
-0.472615	0.0222104
-0.532622	0.00234753
-0.482633	0.0262547
-0.542667	-0.00253832
-0.49264	0.0283119
-0.552616	-0.001011
-0.502582	0.0251326
-0.562608	-0.00203181
-0.512631	0.0267456
-0.572664	-0.00231234
-0.522573	0.031686
-0.58256	-0.00376952
-0.532618	0.0320133
-0.592602	-0.00323184
-0.542625	0.0295041
-0.602582	-0.00454876
-0.552597	0.0366342
-0.612604	-0.00673064
-0.562589	0.028943
-0.622569	-0.00842159
-0.572599	0.0309067
-0.632591	-0.00906836
-0.582614	0.0301587
-0.64259	-0.00807093
-0.592567	0.0309535
-0.652502	-0.00334094
-0.602574	0.0292002
-0.662566	-0.00832029
-0.612593	0.0300807
-0.672584	-0.00701896
-0.62258	0.031086
-0.682686	-0.00809431
-0.632522	0.0295197
-0.692655	-0.000894117
-0.642502	0.0320288
-0.702601	-0.00431499
-0.652597	0.0342263
-0.712688	-0.00537476
-0.662539	0.0328782
-0.722622	-0.00820341
-0.672531	0.0272911
-0.732614	-0.00770469
-0.68266	0.0332912
-0.742651	-0.00600594
-0.692659	0.0300729
-0.752631	-0.00598257
-0.702673	0.0283274
-0.7626	-0.00705013
-0.712608	0.0319743
-0.772637	-0.00765014
-0.722668	0.0316003
-0.782648	-0.00863199
-0.732633	0.031008
-0.792605	-0.00580334
-0.742659	0.0321925
-0.802612	-0.00723714
-0.752608	0.0329639
-0.812611	-0.00393316
-0.762646	0.0328003
-0.822595	-0.00654362
-0.772603	0.0290989
-0.832621	-0.00747871
-0.782618	0.0231611
-0.84264	-0.0104476
-0.792624	0.0276963
-0.852643	-0.00777482
-0.802582	0.0305795
-0.862627	-0.00668388
-0.812619	0.0272209
-0.872607	-0.00789171
-0.822607	0.0248286
-0.882583	-0.00319288
-0.832591	0.0291534
-0.892586	-0.00244481
-0.842636	0.0269092
-0.902578	-0.00137725
-0.852608	0.0241585
-0.912592	-0.00176687
-0.8626	0.0232078
-0.922614	-0.00464227
-0.872607	0.0229896
-0.932621	-0.00532021
-0.882617	0.0229351
-0.942594	-0.00208636
-0.892621	0.0221325
-0.95257	-0.00372276
-0.90257	0.0244001
-0.96252	-0.00107334
-0.912623	0.0222494
-0.972557	-0.00345003
-0.922565	0.0233247
-0.982575	0.000633196
-0.932636	0.0234416
-0.992571	-0.00192272
-0.942594	0.0238858
-1.00254	0.00173972
-0.952597	0.0244312
-1.01251	0.000391632
-0.962569	0.0246572
-1.02255	-0.00249936
-0.972591	0.0254988
-1.03257	-0.00525008
-0.982564	0.0210883
-1.04258	-0.00436954
-0.992582	0.0267845
-1.05252	0.00347743
-1.00255	0.0240572
-1.06252	-0.00202402
-1.01254	0.021626
-1.07254	0.000508518
-1.02261	0.0229507
-1.08258	-0.0045098
-1.03253	0.026278
-1.09261	-0.00574879
-1.04254	0.0216493
-1.10263	-0.00412797
-1.0526	0.025039
-1.11265	-0.00480591
-1.06255	0.0221403
-1.12264	-0.00546827
-1.07254	0.025117

File: CoPc_CNT_VFSWV_scans_66_65_C02.txt
Ewe/V	<I>/mA
-0.122642	0.0253235
-0.0727069	0.0287705
-0.132695	0.0235298
-0.0827329	0.0263598
-0.142637	0.0240164
-0.0926901	0.0233576
-0.152659	0.0189254
-0.102663	0.028531
-0.162643	0.0225714
-0.112631	0.0269962
-0.172623	0.022272
-0.122676	0.027101
-0.182649	0.0244956
-0.132656	0.0281267
-0.192614	0.0234175
-0.142682	0.0245779
-0.202605	0.0212238
-0.15267	0.0271833
-0.212589	0.024533
-0.16265	0.026779
-0.222611	0.023702
-0.172684	0.0283213
-0.232675	0.0223768
-0.182634	0.0299834
-0.242587	0.0264272
-0.192648	0.0277374
-0.252636	0.0221372
-0.202617	0.0278646
-0.262608	0.0232752
-0.212608	0.0268988
-0.272741	0.0202281
-0.2226	0.0239341
-0.282652	0.0206324
-0.232637	0.0251245
-0.292747	0.0198912
-0.242606	0.0257683
-0.302674	0.0185211
-0.252647	0.0254164
-0.312719	0.0178922
-0.262578	0.0244282
-0.322676	0.0153167
-0.272691	0.0272133
-0.332691	0.0219276
-0.282702	0.0243309
-0.342652	0.0158034
-0.292675	0.0316305
-0.35267	0.0161927
-0.30267	0.0246303
-0.362669	0.0151894
-0.3127	0.0258881
-0.372649	0.0152493
-0.322691	0.0255886
-0.382649	0.0151445
-0.332725	0.0202281
-0.39269	0.0130033
-0.342713	0.022257
-0.402647	0.0149948
-0.352685	0.0283663
-0.412642	0.0179596
-0.362681	0.0327535
-0.422687	0.0206024
-0.372684	0.0335322
-0.432633	0.0159905
-0.382687	0.0311289
-0.442644	0.0193072
-0.392686	0.0297738
-0.452662	0.0160729
-0.40267	0.0307096
-0.462673	0.0136471
-0.412654	0.0266518
-0.472657	0.0119027
-0.42263	0.0296765
-0.482622	0.0112514
-0.432668	0.031376
-0.492644	0.0167242
-0.442652	0.033622
-0.502609	0.0133177
-0.452632	0.0337942
-0.512623	0.0104578
-0.462638	0.0277673
-0.522634	0.00726088
-0.472695	0.0256186
-0.532568	0.00427363
-0.48266	0.026225
-0.542598	0.000934504
-0.492674	0.0267266
-0.552582	0.00348751
-0.502582	0.0400158
-0.562589	0.00766517
-0.512627	0.0344006
-0.57258	0.00930478
-0.522649	0.0389227
-0.582568	0.00161581
-0.532603	0.0362649
-0.592602	0.00249176
-0.542636	0.036497
-0.602593	0.00346505
-0.552597	0.0337643
-0.612627	0.00126392
-0.562577	0.0362948
-0.622557	-0.00162599
-0.572599	0.0323118
-0.632557	-0.00431377
-0.582618	0.033607
-0.642529	1.36233e-05
-0.592586	0.0345653
-0.652578	-0.00194044
-0.602586	0.0350745
-0.662562	-0.00105699
-0.612577	0.0334573
-0.672615	-0.00501004
-0.622569	0.0328883
-0.682602	-0.00212761
-0.63258	0.029654
-0.692663	-0.00376723
-0.642506	0.0343482
-0.702673	-0.00340786
-0.652582	0.0276101
-0.712627	-0.00900052
-0.6626	0.0295866
-0.722638	-0.00834168
-0.672592	0.0281192
-0.732641	-0.0067395
-0.682652	0.028793
-0.742647	-0.0061705
-0.692586	0.0287406
-0.752605	-0.004748
-0.702643	0.0332177
-0.762619	-0.00333299
-0.712673	0.0314808
-0.772637	-0.00396937
-0.722649	0.0329257
-0.782618	-0.00316079
-0.732641	0.032761
-0.79264	-0.00601328
-0.742613	0.0315032
-0.802662	-0.00550417
-0.75265	0.0310091
-0.812589	-0.00437366
-0.762577	0.0311888
-0.822653	-0.00136395
-0.772626	0.0298187
-0.832614	-0.00524962
-0.782652	0.0348498
-0.842647	-0.00292122
-0.792602	0.0330904
-0.852635	-0.000697626
-0.802635	0.0313236
-0.862623	0.000807227
-0.812547	0.0296839
-0.872634	-0.00169337
-0.822561	0.0309642
-0.882572	0.00249925
-0.832644	0.0305299
-0.892594	0.000664977
-0.842621	0.0298486
-0.902574	0.00431106
-0.852662	0.0311064
-0.912577	0.00286611
-0.862611	0.0322444
-0.922588	0.0059956
-0.872637	0.0295791
-0.932587	0.00722344
-0.882572	0.0331953
-0.942575	0.00615283
-0.892575	0.0335172
-0.952597	0.00717103
-0.902585	0.032484
-0.962558	0.00886306
-0.912512	0.0294743
-0.972584	0.00911012
-0.922576	0.0278047
-0.982614	0.00735072
-0.932614	0.0303877
-0.992552	0.00911012
-0.942506	0.0300882
-1.00256	0.00970158
-0.952547	0.0281566
-1.01255	0.00677423
-0.962539	0.0288679
-1.0226	0.0064523
-0.972546	0.0320722
-1.03253	0.00768763
-0.98264	0.0314134
-1.04258	0.00478273
-0.992525	0.0324316
-1.05255	0.00500734
-1.00256	0.0297289
-1.06255	0.00498488
-1.01256	0.0313685
-1.07256	0.00496991
-1.02255	0.0307471
-1.08246	0.0108171
-1.03258	0.0291823
-1.09264	0.002926
-1.04251	0.0327985
-1.10262	0.00256663
-1.05255	0.0321471
-1.11265	0.000769793
-1.06251	0.0286957
-1.12258	-0.00134149
-1.07251	0.0319225