Folder: ElectrochemLabUtils/VFSWV_data_prep/Example_data/CoPc(OMe)8_VFSWV_txt_data (part 7)

File: CoPc(OMe)8_CNT_VFSWV_scans_37_36_C02.txt
Ewe/V	<I>/mA
-0.122057	-0.0111567
-0.0721026	0.0457357
-0.132048	-0.0255026
-0.0821056	0.0428993
-0.142074	-0.0344483
-0.0920475	0.0440993
-0.152039	-0.0336301
-0.102051	0.0365173
-0.162038	-0.0451395
-0.112046	0.0343899
-0.17206	-0.037012
-0.122064	0.0395174
-0.182037	-0.0408303
-0.132083	0.0397355
-0.192002	-0.0320482
-0.142067	0.0329172
-0.201986	-0.042903
-0.152066	0.0342263
-0.212034	-0.0491214
-0.16205	0.0394083
-0.222041	-0.0467213
-0.172038	0.0331899
-0.232086	-0.0546852
-0.182021	0.0302444
-0.242021	-0.0561034
-0.192028	0.0342263
-0.252054	-0.0590489
-0.202024	0.0321535
-0.262038	-0.0637945
-0.21205	0.0290989
-0.271999	-0.0648855
-0.222003	0.0373355
-0.282132	-0.0742675
-0.232071	0.0368991
-0.292085	-0.0730129
-0.24204	0.0371173
-0.302085	-0.075413
-0.252031	0.0352082
-0.312092	-0.0763949
-0.262046	0.0336808
-0.322152	-0.0779767
-0.272007	0.0302444
-0.332109	-0.0821768
-0.28209	0.0374446
-0.342078	-0.0890497
-0.292147	0.034499
-0.352127	-0.0921044
-0.302161	0.0396264
-0.362092	-0.0828859
-0.312103	0.0404992
-0.372125	-0.0876861
-0.322121	0.0414265
-0.382082	-0.0952681
-0.332071	0.0340627
-0.39207	-0.0917225
-0.342078	0.0291534
-0.402069	-0.0989227
-0.352134	0.0402265
-0.412088	-0.102796
-0.362103	0.0382628
-0.422075	-0.109996
-0.372091	0.0364082
-0.432067	-0.107105
-0.382124	0.038481
-0.442062	-0.114032
-0.392101	0.0368446
-0.452058	-0.115505
-0.402146	0.0420811
-0.462065	-0.11916
-0.41205	0.0400628
-0.472072	-0.123905
-0.422098	0.0420811
-0.482105	-0.129414
-0.432086	0.0430629
-0.492089	-0.133996
-0.442059	0.0484085
-0.502069	-0.13656
-0.452039	0.0455721
-0.512065	-0.14807
-0.462076	0.0526086
-0.522083	-0.166615
-0.472056	0.0532632
-0.532086	-0.176979
-0.482029	0.0599179
-0.542066	-0.205562
-0.492081	0.0663544
-0.552077	-0.235399
-0.5021	0.0720819
-0.56208	-0.2738
-0.512046	0.0833185
-0.572037	-0.320983
-0.52211	0.105846
-0.582078	-0.392658
-0.532048	0.127447
-0.592047	-0.468751
-0.541986	0.161702
-0.602042	-0.555153
-0.552046	0.212486
-0.61203	-0.644174
-0.562053	0.280833
-0.622006	-0.732922
-0.572007	0.357308
-0.632052	-0.829088
-0.582025	0.435801
-0.64202	-0.899726
-0.592058	0.510639
-0.652016	-0.956618
-0.602073	0.581714
-0.662038	-0.985037
-0.612045	0.637461
-0.672029	-0.988201
-0.622033	0.674443
-0.682006	-0.977019
-0.632032	0.696099
-0.691978	-0.942545
-0.642001	0.692008
-0.701996	-0.881617
-0.651989	0.671716
-0.712106	-0.820088
-0.662023	0.624751
-0.722075	-0.751904
-0.671987	0.585914
-0.732082	-0.681484
-0.682002	0.533385
-0.742051	-0.612755
-0.692035	0.472784
-0.752107	-0.571899
-0.702061	0.407545
-0.762125	-0.526516
-0.712145	0.355889
-0.772102	-0.493952
-0.722102	0.317379
-0.782074	-0.457241
-0.73212	0.274178
-0.792035	-0.436677
-0.742104	0.243741
-0.80205	-0.417149
-0.752103	0.21434
-0.812061	-0.411586
-0.762125	0.193231
-0.822083	-0.398931
-0.772075	0.176648
-0.832089	-0.389385
-0.782116	0.161048
-0.842108	-0.38033
-0.792066	0.147957
-0.85205	-0.390694
-0.802069	0.148011
-0.862057	-0.386549
-0.812102	0.139229
-0.87214	-0.389658
-0.822102	0.132956
-0.882021	-0.387858
-0.832082	0.125701
-0.892073	-0.38273
-0.842054	0.12052
-0.902057	-0.387312
-0.852061	0.127665
-0.912087	-0.390312
-0.862087	0.120901
-0.922044	-0.392822
-0.872075	0.122865
-0.932108	-0.39124
-0.882055	0.118556
-0.942089	-0.391131
-0.892043	0.120192
-0.952034	-0.389549
-0.902054	0.116647
-0.962037	-0.391458
-0.912079	0.124229
-0.972063	-0.389821
-0.922071	0.126138
-0.982055	-0.390967
-0.932059	0.124883
-0.992069	-0.382403
-0.942096	0.12101
-1.00204	-0.38813
-0.952046	0.119374
-1.01208	-0.39184
-0.962014	0.119974
-1.02201	-0.392222
-0.972063	0.121174
-1.03206	-0.397403
-0.982066	0.12172
-1.04204	-0.394567
-0.992058	0.119483
-1.05208	-0.394785
-1.00205	0.121829
-1.06197	-0.393476
-1.01206	0.121883
-1.07205	-0.405586
-1.02201	0.122374
-1.08201	-0.399476
-1.03199	0.125647
-1.09204	-0.40924
-1.04201	0.110047
-1.10199	-0.412731
-1.0521	0.118229
-1.11201	-0.421895
-1.06203	0.120083
-1.12212	-0.42975
-1.07199	0.117847

File: CoPc(OMe)8_CNT_VFSWV_scans_38_37_C02.txt
Ewe/V	<I>/mA
-0.122095	-0.0176478
-0.0720873	0.0486812
-0.13206	-0.0293754
-0.0820636	0.0386446
-0.142101	-0.0361392
-0.0920972	0.0382082
-0.1521	-0.0358665
-0.102054	0.0364082
-0.16208	-0.0333573
-0.112084	0.0302989
-0.172053	-0.0416485
-0.122091	0.0324808
-0.182018	-0.0405575
-0.132029	0.0276261
-0.192089	-0.048685
-0.142051	0.0266988
-0.20207	-0.042903
-0.152031	0.0289898
-0.212046	-0.0496123
-0.162099	0.0278989
-0.222072	-0.0545761
-0.172064	0.0242442
-0.23201	-0.0523397
-0.182048	0.0347172
-0.242066	-0.056267
-0.192051	0.0322081
-0.252031	-0.0583398
-0.202012	0.0312262
-0.262053	-0.0612308
-0.212023	0.0278443
-0.272003	-0.0656491
-0.222037	0.0337354
-0.28214	-0.0679946
-0.232014	0.0315535
-0.29207	-0.0700129
-0.24207	0.0304626
-0.302081	-0.0783585
-0.252043	0.0282807
-0.312122	-0.0799404
-0.262107	0.0275716
-0.322106	-0.0785222
-0.272087	0.0308444
-0.332121	-0.0758494
-0.282166	0.0305171
-0.342093	-0.0829405
-0.292105	0.0283898
-0.352149	-0.085286
-0.302127	0.0314444
-0.362076	-0.0838678
-0.312134	0.0257715
-0.372098	-0.0876861
-0.322137	0.0311171
-0.382078	-0.0883406
-0.332124	0.0324263
-0.392146	-0.100232
-0.342131	0.0299716
-0.402123	-0.0966863
-0.352096	0.0310626
-0.41208	-0.0970136
-0.362088	0.0362445
-0.422095	-0.0985954
-0.372045	0.0353718
-0.432101	-0.10885
-0.382136	0.0253897
-0.442055	-0.10285
-0.392085	0.03679
-0.452004	-0.106287
-0.402043	0.0356445
-0.462076	-0.111305
-0.412114	0.03679
-0.472075	-0.118505
-0.422068	0.0416992
-0.482082	-0.12336
-0.43209	0.0420811
-0.492066	-0.128051
-0.442135	0.0453539
-0.502077	-0.134924
-0.452065	0.043172
-0.512065	-0.14016
-0.462118	0.0491176
-0.522087	-0.148833
-0.472075	0.0518995
-0.532052	-0.162088
-0.482067	0.0601906
-0.541997	-0.18478
-0.492089	0.0566451
-0.551993	-0.214235
-0.502073	0.0586633
-0.562023	-0.254
-0.512068	0.0690818
-0.572037	-0.298292
-0.52203	0.0910097
-0.582006	-0.35633
-0.532086	0.11261
-0.592047	-0.427895
-0.542036	0.147138
-0.602065	-0.50617
-0.552077	0.182758
-0.612038	-0.593718
-0.561996	0.247396
-0.621991	-0.677993
-0.572091	0.305161
-0.632063	-0.752395
-0.582067	0.388618
-0.642005	-0.825215
-0.591997	0.457183
-0.652004	-0.869562
-0.602008	0.516312
-0.662007	-0.899944
-0.612064	0.565895
-0.672056	-0.911181
-0.62206	0.607514
-0.682013	-0.892199
-0.632052	0.620006
-0.692001	-0.854616
-0.642013	0.619406
-0.702031	-0.811251
-0.651989	0.601623
-0.712129	-0.749831
-0.662007	0.568022
-0.722132	-0.684048
-0.672037	0.52253
-0.732112	-0.623719
-0.682006	0.475784
-0.7421	-0.569608
-0.69202	0.415291
-0.752111	-0.525152
-0.702138	0.36849
-0.762137	-0.48686
-0.712091	0.322725
-0.772075	-0.452441
-0.722098	0.274451
-0.782086	-0.434223
-0.732093	0.244341
-0.792073	-0.405858
-0.742112	0.215813
-0.802084	-0.398658
-0.752122	0.191758
-0.812087	-0.386985
-0.762083	0.175176
-0.822117	-0.376512
-0.772102	0.151502
-0.832124	-0.373512
-0.782082	0.142393
-0.842054	-0.364512
-0.792112	0.131702
-0.852042	-0.366366
-0.802092	0.12652
-0.862053	-0.365275
-0.812083	0.114519
-0.872079	-0.370021
-0.822071	0.114356
-0.882105	-0.368603
-0.832109	0.111574
-0.892077	-0.364075
-0.842119	0.109665
-0.902092	-0.372639
-0.852061	0.10481
-0.912064	-0.371276
-0.862072	0.104319
-0.922071	-0.370785
-0.872098	0.105574
-0.932074	-0.374876
-0.882059	0.110319
-0.942031	-0.375203
-0.892035	0.104865
-0.95205	-0.369748
-0.902076	0.110047
-0.962079	-0.367621
-0.91206	0.109883
-0.972079	-0.364675
-0.922056	0.10841
-0.982032	-0.36473
-0.932028	0.109992
-0.992016	-0.359821
-0.942005	0.105301
-1.00202	-0.371275
-0.95208	0.107101
-1.01207	-0.36893
-0.962076	0.110865
-1.02206	-0.370403
-0.972029	0.110647
-1.03207	-0.36713
-0.982024	0.114628
-1.04205	-0.370566
-0.99205	0.116974
-1.05208	-0.368657
-1.00203	0.113265
-1.06205	-0.375639
-1.01205	0.105083
-1.07204	-0.377439
-1.02204	0.109501
-1.08214	-0.378094
-1.03207	0.10601
-1.09199	-0.380712
-1.04207	0.109119
-1.10198	-0.393258
-1.05197	0.110701
-1.11202	-0.39904
-1.06205	0.109501
-1.12214	-0.39364
-1.07199	0.116538

File: CoPc(OMe)8_CNT_VFSWV_scans_39_38_C02.txt
Ewe/V	<I>/mA
-0.122057	-0.0081021
-0.0720987	0.0353786
-0.132067	-0.0183637
-0.0820864	0.0347104
-0.142074	-0.021657
-0.0920781	0.0324194
-0.152039	-0.0256185
-0.102051	0.0237328
-0.162034	-0.0253321
-0.112073	0.0329922
-0.172072	-0.026048
-0.122102	0.0249261
-0.182079	-0.0270026
-0.132064	0.026167
-0.192032	-0.0338755
-0.142055	0.0258329
-0.202024	-0.0314414
-0.152051	0.0249738
-0.212015	-0.0352597
-0.162069	0.0280284
-0.222087	-0.0361665
-0.172053	0.0290307
-0.232025	-0.0401757
-0.182071	0.0266443
-0.242055	-0.0446144
-0.192067	0.0273125
-0.252008	-0.0451395
-0.202043	0.0248783
-0.262019	-0.0504851
-0.212027	0.0254988
-0.272011	-0.0536351
-0.222049	0.0253079
-0.282079	-0.0534442
-0.232075	0.0283148
-0.292147	-0.0571193
-0.242044	0.0226828
-0.30215	-0.0567852
-0.252043	0.0185782
-0.312084	-0.0581694
-0.262046	0.0250692
-0.322091	-0.0620831
-0.272053	0.0287443
-0.33209	-0.0657105
-0.282163	0.0211078
-0.342105	-0.0626081
-0.292047	0.0320853
-0.352066	-0.0664264
-0.302153	0.0221101
-0.362099	-0.0649468
-0.312122	0.0216805
-0.372076	-0.0727266
-0.322114	0.0225874
-0.382067	-0.0676673
-0.332109	0.0286012
-0.392085	-0.0754471
-0.342105	0.021776
-0.402062	-0.0756857
-0.352108	0.031799
-0.412076	-0.0782153
-0.362156	0.0268352
-0.422037	-0.0757335
-0.372087	0.0280761
-0.432117	-0.0812222
-0.382082	0.0296512
-0.442108	-0.0820814
-0.392085	0.026692
-0.452065	-0.0893838
-0.4021	0.0181963
-0.46208	-0.0888588
-0.412141	0.0309876
-0.472049	-0.0911975
-0.422114	0.0338036
-0.482067	-0.087427
-0.432078	0.0301762
-0.492009	-0.10165
-0.442043	0.0250692
-0.502081	-0.102652
-0.452065	0.0352832
-0.512046	-0.100982
-0.462118	0.0375264
-0.522056	-0.110671
-0.472091	0.0355218
-0.532055	-0.120216
-0.482067	0.038481
-0.542043	-0.129905
-0.492081	0.0395787
-0.552092	-0.147517
-0.502073	0.0427288
-0.562053	-0.170379
-0.512061	0.0494585
-0.572029	-0.196344
-0.521999	0.057286
-0.582032	-0.232474
-0.532029	0.062393
-0.592009	-0.274666
-0.542058	0.0870209
-0.602081	-0.325449
-0.552096	0.101721
-0.612045	-0.378476
-0.562007	0.135561
-0.622052	-0.428161
-0.572033	0.17446
-0.632036	-0.481665
-0.582017	0.220852
-0.641971	-0.517652
-0.592032	0.264285
-0.652031	-0.554737
-0.60205	0.304854
-0.66203	-0.577599
-0.612003	0.341032
-0.672018	-0.577361
-0.622029	0.368858
-0.681994	-0.570679
-0.632059	0.379072
-0.691993	-0.543139
-0.642016	0.372676
-0.701977	-0.514359
-0.651966	0.36671
-0.712099	-0.47966
-0.662007	0.346473
-0.72209	-0.438805
-0.672056	0.319602
-0.732139	-0.415704
-0.682006	0.293208
-0.742146	-0.370075
-0.692005	0.262089
-0.752096	-0.343825
-0.702069	0.228059
-0.762034	-0.326547
-0.712118	0.193742
-0.772079	-0.313756
-0.722071	0.171882
-0.782044	-0.29896
-0.73209	0.150214
-0.79207	-0.291848
-0.74207	0.137422
-0.802088	-0.282016
-0.752107	0.12172
-0.812038	-0.273711
-0.762038	0.106685
-0.822121	-0.274427
-0.772067	0.104155
-0.832021	-0.267364
-0.782109	0.0923188
-0.842028	-0.270418
-0.792138	0.0839663
-0.852122	-0.275668
-0.802057	0.0861141
-0.86203	-0.27648
-0.812057	0.0838708
-0.872094	-0.279391
-0.82209	0.0781911
-0.882047	-0.274905
-0.832166	0.0774275
-0.892092	-0.276002
-0.842009	0.0761865
-0.902092	-0.281348
-0.852065	0.0757092
-0.912076	-0.283209
-0.862102	0.0717955
-0.922021	-0.282875
-0.872056	0.0769979
-0.932028	-0.281062
-0.881998	0.0691227
-0.942024	-0.285119
-0.892073	0.0763774
-0.952027	-0.28488
-0.902065	0.0697432
-0.962026	-0.276718
-0.912072	0.0725592
-0.972006	-0.283019
-0.922079	0.0770934
-0.982032	-0.282016
-0.932055	0.0747069
-0.992069	-0.283782
-0.942104	0.0719864
-1.00204	-0.282303
-0.952076	0.0695045
-1.01204	-0.28173
-0.96206	0.0730842
-1.02203	-0.283209
-0.97204	0.0760433
-1.03203	-0.288794
-0.982009	0.0699818
-1.042	-0.290273
-0.992047	0.07065
-1.05204	-0.284498
-1.00203	0.0664976
-1.062	-0.287982
-1.01204	0.0693136
-1.07205	-0.28908
-1.02201	0.0717955
-1.08205	-0.29433
-1.03206	0.0746115
-1.092	-0.295094
-1.04203	0.0717
-1.102	-0.304496
-1.05204	0.0717955
-1.11201	-0.310367
-1.06199	0.0655908
-1.12209	-0.318385
-1.07201	0.0624884

File: CoPc(OMe)8_CNT_VFSWV_scans_40_39_C02.txt
Ewe/V	<I>/mA
-0.122106	-0.00657479
-0.0721216	0.03514
-0.13206	-0.0224207
-0.0821285	0.0260715
-0.142086	-0.0248071
-0.0920781	0.0251647
-0.152062	-0.0264299
-0.102058	0.0270261
-0.162084	-0.0271458
-0.112069	0.0242101
-0.172038	-0.025523
-0.122095	0.0222533
-0.182052	-0.0286731
-0.132094	0.0298421
-0.192112	-0.0331596
-0.142101	0.027933
-0.202062	-0.040653
-0.152035	0.0239238
-0.212023	-0.0321096
-0.162038	0.0260715
-0.222072	-0.0353074
-0.17206	0.0202487
-0.232029	-0.0413212
-0.18206	0.0166213
-0.242017	-0.0433258
-0.192025	0.0222055
-0.25205	-0.0490532
-0.202066	0.0198668
-0.262019	-0.0485759
-0.212038	0.0254033
-0.272041	-0.0445667
-0.222144	0.0215373
-0.282193	-0.0477645
-0.232056	0.0200577
-0.292162	-0.0511055
-0.242024	0.0204396
-0.302131	-0.0567375
-0.252028	0.024401
-0.312103	-0.0544465
-0.262038	0.0192464
-0.322087	-0.0567375
-0.272106	0.0157622
-0.332109	-0.0615104
-0.282098	0.0234465
-0.342093	-0.0643741
-0.292173	0.0209646
-0.352085	-0.0651855
-0.302157	0.0106552
-0.362107	-0.0649468
-0.312099	0.025642
-0.372144	-0.0653286
-0.322087	0.0215373
-0.382101	-0.0692424
-0.33214	0.0203918
-0.392097	-0.075113
-0.342108	0.0197714
-0.402043	-0.0705311
-0.352081	0.0173849
-0.412038	-0.077404
-0.362091	0.0168599
-0.422079	-0.0756857
-0.372125	0.0258806
-0.432082	-0.0794563
-0.382067	0.0193418
-0.44212	-0.0749221
-0.392112	0.0269784
-0.452115	-0.0778812
-0.402134	0.0228737
-0.46211	-0.0794086
-0.412111	0.0292694
-0.472041	-0.0804586
-0.422064	0.0235419
-0.482063	-0.0868065
-0.432063	0.0310353
-0.492097	-0.0896702
-0.442062	0.0263579
-0.502062	-0.0940612
-0.452088	0.0302717
-0.51203	-0.103225
-0.462061	0.031083
-0.522106	-0.102461
-0.472091	0.0320376
-0.532086	-0.110718
-0.482075	0.0377173
-0.54207	-0.116016
-0.492112	0.0325149
-0.552054	-0.135108
-0.502081	0.0375741
-0.56203	-0.154581
-0.51211	0.0410106
-0.572026	-0.171716
-0.522026	0.0530382
-0.58204	-0.200162
-0.532117	0.0631089
-0.591994	-0.229038
-0.542047	0.0661158
-0.60205	-0.274809
-0.552046	0.090171
-0.612023	-0.320533
-0.562049	0.113844
-0.622117	-0.365016
-0.57206	0.149545
-0.63201	-0.409881
-0.582013	0.176416
-0.642035	-0.448589
-0.59202	0.216652
-0.652023	-0.477083
-0.601993	0.25808
-0.662053	-0.487154
-0.612023	0.284856
-0.672022	-0.490065
-0.622045	0.309866
-0.682044	-0.47861
-0.632006	0.311202
-0.691997	-0.46873
-0.642051	0.3186
-0.702035	-0.437802
-0.652027	0.316738
-0.712125	-0.407065
-0.661984	0.296024
-0.722117	-0.381626
-0.672037	0.273496
-0.732086	-0.350984
-0.682006	0.242807
-0.742074	-0.325783
-0.692032	0.215268
-0.75213	-0.313517
-0.702176	0.191212
-0.762141	-0.295523
-0.712125	0.165487
-0.772117	-0.279105
-0.722113	0.142529
-0.78209	-0.272996
-0.732109	0.129213
-0.792108	-0.267745
-0.742085	0.113033
-0.802046	-0.259011
-0.75213	0.103917
-0.812125	-0.254334
-0.762087	0.0917938
-0.822106	-0.254191
-0.772071	0.0811503
-0.832059	-0.248034
-0.782086	0.0818662
-0.842093	-0.245886
-0.792047	0.0741819
-0.852153	-0.254906
-0.802019	0.0711273
-0.862095	-0.251947
-0.812057	0.074516
-0.872125	-0.250277
-0.822071	0.0712228
-0.882047	-0.257675
-0.832082	0.066784
-0.892115	-0.256243
-0.842047	0.0683113
-0.90205	-0.25715
-0.852076	0.0681681
-0.912057	-0.258343
-0.862137	0.0638726
-0.922044	-0.256481
-0.87209	0.0627271
-0.932078	-0.252281
-0.88207	0.0632521
-0.942062	-0.255718
-0.892123	0.0636816
-0.952099	-0.256625
-0.902099	0.0635385
-0.962079	-0.263736
-0.912102	0.0636339
-0.972079	-0.25209
-0.922105	0.0679295
-0.982093	-0.250993
-0.932044	0.0691227
-0.992024	-0.262829
-0.9421	0.0684545
-1.00204	-0.254047
-0.952088	0.0630612
-1.0121	-0.258868
-0.962022	0.0641589
-1.02201	-0.258916
-0.972117	0.064493
-1.03205	-0.254429
-0.982055	0.0640157
-1.04207	-0.26197
-0.99202	0.0617725
-1.05203	-0.256959
-1.00205	0.0691704
-1.06202	-0.26808
-1.01206	0.0660203
-1.07204	-0.261398
-1.02204	0.0680727
-1.08207	-0.2687
-1.03201	0.062393
-1.09204	-0.270132
-1.04206	0.0649226
-1.10204	-0.269177
-1.05209	0.0583838
-1.11203	-0.27815
-1.06204	0.0630612
-1.12213	-0.291562
-1.07202	0.0595293

File: CoPc(OMe)8_CNT_VFSWV_scans_41_40_C02.txt
Ewe/V	<I>/mA
-0.122076	0.0132803
-0.0721026	0.0405598
-0.132106	-0.00606569
-0.0821094	0.0347475
-0.142059	-0.0114537
-0.0920705	0.0302929
-0.152115	-0.0131931
-0.102081	0.033899
-0.162054	-0.0193024
-0.112088	0.0353415
-0.172087	-0.0179024
-0.122091	0.031905
-0.182052	-0.0187084
-0.13206	0.0290201
-0.192032	-0.0207024
-0.14212	0.0310565
-0.202058	-0.0201509
-0.152093	0.033899
-0.212031	-0.0230358
-0.162057	0.0321172
-0.222099	-0.0268541
-0.172106	0.0349172
-0.232102	-0.0333876
-0.182048	0.0312262
-0.242063	-0.0289754
-0.192044	0.0339414
-0.252031	-0.0304179
-0.20207	0.0315232
-0.262	-0.0333452
-0.212061	0.0337717
-0.272011	-0.0330058
-0.222026	0.0289777
-0.282143	-0.0359756
-0.23206	0.0305898
-0.292108	-0.0411515
-0.242063	0.0330505
-0.302111	-0.0427636
-0.252031	0.0313535
-0.312111	-0.0396242
-0.262061	0.0292322
-0.322129	-0.043103
-0.272018	0.0274504
-0.332101	-0.0424242
-0.282151	0.0299959
-0.342131	-0.0481941
-0.292139	0.0362748
-0.352062	-0.0421273
-0.302172	0.0308868
-0.36216	-0.0470062
-0.312107	0.0356809
-0.372121	-0.0523518
-0.322102	0.0302929
-0.382082	-0.0511214
-0.332117	0.0338566
-0.392082	-0.0551094
-0.342124	0.0310141
-0.402066	-0.0549822
-0.3521	0.0363597
-0.412084	-0.0562549
-0.362122	0.0319899
-0.422087	-0.0599459
-0.372068	0.0339414
-0.432097	-0.0612187
-0.382101	0.0310989
-0.442127	-0.0621945
-0.392104	0.0335172
-0.452035	-0.0673279
-0.402115	0.0387355
-0.462099	-0.0646551
-0.412099	0.0373779
-0.472087	-0.0664794
-0.422091	0.0383537
-0.482078	-0.0716553
-0.432101	0.0364445
-0.492066	-0.0727584
-0.442101	0.0414507
-0.502046	-0.0774676
-0.452104	0.035893
-0.512088	-0.0788676
-0.462088	0.0360203
-0.522075	-0.0859103
-0.472056	0.0403477
-0.532075	-0.0912134
-0.48204	0.0447175
-0.542055	-0.107335
-0.492062	0.0490873
-0.5521	-0.10865
-0.502058	0.0477721
-0.562049	-0.125069
-0.512	0.0541359
-0.572048	-0.140469
-0.522064	0.0564269
-0.582013	-0.165755
-0.532055	0.0638089
-0.592024	-0.199016
-0.542036	0.0773426
-0.602046	-0.235502
-0.552031	0.0879065
-0.612003	-0.277291
-0.562042	0.108313
-0.622056	-0.313056
-0.572037	0.128974
-0.632036	-0.351917
-0.582036	0.159902
-0.642024	-0.389634
-0.592028	0.194097
-0.652073	-0.404737
-0.602016	0.220062
-0.662076	-0.425313
-0.612038	0.255996
-0.671987	-0.432865
-0.622018	0.274196
-0.682036	-0.419883
-0.63199	0.280263
-0.691993	-0.3985
-0.642028	0.283445
-0.702023	-0.380258
-0.651996	0.277506
-0.712129	-0.354802
-0.662038	0.264269
-0.722102	-0.327905
-0.672018	0.240383
-0.732139	-0.306904
-0.682017	0.217474
-0.742009	-0.285649
-0.692001	0.193928
-0.752092	-0.266897
-0.702122	0.176279
-0.762083	-0.25663
-0.71211	0.153539
-0.772079	-0.248739
-0.722087	0.129526
-0.78207	-0.242333
-0.732086	0.122186
-0.792093	-0.24369
-0.742116	0.107634
-0.80208	-0.238005
-0.752031	0.096434
-0.812095	-0.227526
-0.76208	0.0936764
-0.82209	-0.236054
-0.772079	0.0851489
-0.832124	-0.224472
-0.782059	0.0795912
-0.842077	-0.228035
-0.792081	0.0771729
-0.852084	-0.224344
-0.802096	0.0779366
-0.862064	-0.227484
-0.81211	0.073991
-0.872086	-0.223835
-0.822109	0.0688151
-0.882009	-0.228163
-0.832116	0.0694091
-0.892085	-0.228841
-0.842081	0.0670332
-0.902061	-0.229053
-0.852092	0.0729304
-0.912057	-0.228035
-0.862045	0.0693242
-0.922071	-0.228629
-0.87206	0.0717425
-0.932074	-0.229732
-0.882047	0.0684757
-0.942043	-0.230241
-0.892142	0.0750941
-0.952031	-0.222096
-0.902084	0.0760698
-0.962037	-0.218871
-0.912072	0.0718273
-0.972071	-0.22952
-0.92206	0.0763668
-0.982017	-0.224514
-0.932059	0.0756456
-0.992035	-0.223835
-0.942058	0.0680515
-1.00201	-0.225956
-0.952027	0.0694939
-1.01206	-0.220993
-0.962018	0.0769608
-1.02203	-0.221459
-0.971976	0.0787851
-1.03202	-0.226508
-0.982093	0.0735667
-1.04202	-0.230284
-0.992047	0.0710637
-1.05203	-0.222435
-1.00207	0.0693666
-1.06202	-0.228587
-1.01201	0.0720394
-1.07204	-0.233126
-1.02202	0.0677969
-1.08201	-0.231726
-1.03206	0.0728455
-1.09204	-0.24403
-1.04197	0.0705121
-1.10202	-0.240466
-1.05202	0.0716576
-1.11205	-0.246108
-1.06205	0.0712334
-1.12211	-0.255781
-1.07204	0.0668211

File: CoPc(OMe)8_CNT_VFSWV_scans_42_41_C02.txt
Ewe/V	<I>/mA
-0.122045	0.00602555
-0.072114	0.0318202
-0.132018	-0.0150599
-0.0820789	0.0289777
-0.142051	-0.0151023
-0.0921086	0.0280867
-0.1521	-0.0151871
-0.102028	0.0257534
-0.162065	-0.0183266
-0.112054	0.0249048
-0.172045	-0.0165448
-0.122045	0.0260079
-0.182033	-0.0224843
-0.132006	0.0270261
-0.192036	-0.0266844
-0.142059	0.0271958
-0.202043	-0.0270238
-0.152031	0.0238018
-0.212038	-0.0357635
-0.162069	0.021129
-0.222018	-0.033727
-0.172049	0.024523
-0.23206	-0.0416182
-0.182037	0.0236321
-0.242074	-0.0370362
-0.192009	0.0226563
-0.251997	-0.0413636
-0.202039	0.0238018
-0.262038	-0.0390302
-0.212038	0.0237594
-0.272011	-0.039709
-0.222049	0.0263897
-0.282067	-0.0398363
-0.231987	0.024523
-0.292097	-0.0458607
-0.242021	0.0210866
-0.30213	-0.0504426
-0.252031	0.0218078
-0.31213	-0.0489577
-0.262084	0.0226987
-0.322156	-0.0517578
-0.272014	0.0165895
-0.332128	-0.0535821
-0.282132	0.022529
-0.342066	-0.0478547
-0.292116	0.020832
-0.352108	-0.055364
-0.302108	0.0207047
-0.362084	-0.0613035
-0.312111	0.0220199
-0.372095	-0.05477
-0.322083	0.0225714
-0.382105	-0.0562125
-0.332143	0.0229957
-0.392062	-0.0552367
-0.342116	0.025117
-0.402077	-0.0538367
-0.352089	0.0260503
-0.41205	-0.0628308
-0.362114	0.0269413
-0.422068	-0.0644006
-0.372072	0.0186259
-0.432113	-0.0673279
-0.382086	0.0178622
-0.442059	-0.0666916
-0.392062	0.0232927
-0.452081	-0.0733948
-0.402088	0.0238018
-0.462122	-0.0716129
-0.412065	0.0224017
-0.472071	-0.0686007
-0.422083	0.0277898
-0.482052	-0.0720796
-0.432075	0.0297413
-0.492051	-0.0799283
-0.442108	0.0252867
-0.502104	-0.0817101
-0.452065	0.0284686
-0.512038	-0.0866315
-0.462046	0.0277898
-0.522079	-0.0862921
-0.472072	0.0329657
-0.532052	-0.0887103
-0.482055	0.0342809
-0.542009	-0.101141
-0.492047	0.0320747
-0.552031	-0.107505
-0.502092	0.0361051
-0.562049	-0.119723
-0.512061	0.0421295
-0.572056	-0.139706
-0.522045	0.0475176
-0.58201	-0.157482
-0.532017	0.0487055
-0.592036	-0.18264
-0.542043	0.0553238
-0.601985	-0.211871
-0.552085	0.0658878
-0.612003	-0.245812
-0.562045	0.0865489
-0.622098	-0.274449
-0.572022	0.105174
-0.632025	-0.313353
-0.581998	0.13118
-0.642016	-0.337281
-0.592013	0.159308
-0.651974	-0.366512
-0.602008	0.18277
-0.662042	-0.374488
-0.612045	0.206825
-0.672033	-0.373512
-0.622014	0.221674
-0.682036	-0.370288
-0.632032	0.232747
-0.692001	-0.354081
-0.642016	0.242165
-0.702042	-0.335923
-0.652019	0.235123
-0.71211	-0.319971
-0.661969	0.222183
-0.722052	-0.30334
-0.672052	0.198764
-0.732101	-0.283316
-0.681979	0.180818
-0.742066	-0.26223
-0.692035	0.16266
-0.752077	-0.245472
-0.702122	0.142296
-0.762064	-0.241654
-0.712114	0.123714
-0.772113	-0.237199
-0.722064	0.113107
-0.782048	-0.229563
-0.732071	0.101101
-0.792051	-0.220526
-0.742077	0.0921915
-0.802054	-0.222605
-0.752061	0.0803972
-0.81208	-0.218999
-0.762053	0.0723364
-0.822102	-0.220017
-0.772102	0.0746698
-0.832059	-0.214205
-0.782048	0.0656332
-0.842142	-0.213568
-0.792112	0.0652938
-0.852069	-0.214205
-0.802107	0.0587603
-0.862068	-0.217471
-0.812076	0.0571057
-0.872098	-0.219465
-0.822098	0.0565118
-0.882036	-0.217683
-0.83212	0.0578694
-0.892062	-0.221162
-0.842077	0.0545178
-0.902076	-0.221035
-0.852023	0.0504025
-0.912083	-0.223962
-0.862022	0.0505298
-0.922086	-0.224641
-0.872067	0.0540511
-0.932032	-0.221671
-0.882089	0.0562148
-0.94202	-0.221671
-0.892092	0.0532026
-0.952076	-0.221544
-0.902069	0.0550693
-0.962102	-0.210132
-0.912072	0.0499358
-0.971995	-0.223453
-0.922079	0.0542632
-0.982059	-0.220865
-0.932044	0.0502752
-0.992031	-0.224005
-0.942062	0.0519298
-1.00208	-0.216665
-0.952073	0.0508267
-1.01206	-0.225108
-0.962087	0.0539662
-1.02206	-0.226338
-0.972105	0.0505722
-1.03202	-0.220865
-0.982051	0.0535844
-1.04205	-0.227781
-0.992043	0.0572754
-1.05206	-0.226805
-1.00203	0.0513783
-1.06198	-0.227908
-1.01211	0.0502752
-1.07202	-0.224938
-1.02202	0.0527783
-1.08208	-0.232532
-1.03202	0.0484934
-1.09207	-0.23792
-1.04202	0.0504873
-1.10207	-0.237157
-1.05202	0.0504449
-1.11198	-0.251539
-1.06198	0.0478994
-1.12208	-0.251624
-1.07201	0.0501055