Folder: ElectrochemLabUtils/VFSWV_data_prep/Example_data/CoPc(OMe)8_VFSWV_txt_data (part 13)

File: CoPc(OMe)8_CNT_VFSWV_scans_73_72_C02.txt
Ewe/V	<I>/mA
-0.122095	-0.00430635
-0.0721026	-0.0077387
-0.132113	-0.00793585
-0.0820636	-0.00585116
-0.142067	-0.0055997
-0.0920552	-0.00606519
-0.151982	-0.00448144
-0.102051	-0.00157026
-0.162042	-0.00491469
-0.112077	-0.000886777
-0.172015	-0.00503091
-0.122061	-0.000143808
-0.181999	-0.00201948
-0.132094	-0.00353265
-0.192002	-0.00839997
-0.142009	-0.00571288
-0.202012	-0.0107685
-0.152012	-0.00651563
-0.212034	-0.0135204
-0.162023	-0.009545
-0.222057	-0.0119656
-0.172011	-0.00847467
-0.232018	-0.00897682
-0.181995	-0.0107273
-0.241998	-0.0161619
-0.191998	-0.0118055
-0.251997	-0.0176633
-0.202058	-0.0139913
-0.262011	-0.0169719
-0.212057	-0.0120664
-0.272018	-0.0130244
-0.221995	-0.0141736
-0.282147	-0.0178035
-0.23201	-0.0146712
-0.292078	-0.0176559
-0.241994	-0.0162045
-0.302096	-0.0177464
-0.25202	-0.0143974
-0.312061	-0.0176194
-0.262027	-0.0125736
-0.322064	-0.0154443
-0.272022	-0.0135426
-0.332117	-0.0164654
-0.282113	-0.0143259
-0.342085	-0.0160831
-0.292135	-0.0113052
-0.352069	-0.0155379
-0.302104	-0.00827143
-0.362095	-0.012228
-0.31208	-0.0104518
-0.372087	-0.0100581
-0.322068	-0.00785963
-0.382082	-0.0117051
-0.33209	-0.00952447
-0.392127	-0.0128331
-0.342105	-0.00991299
-0.402111	-0.00653921
-0.3521	-0.00579396
-0.412084	-0.00819248
-0.362049	-0.00873191
-0.422072	-0.0115349
-0.372076	-0.00943395
-0.432052	-0.0104514
-0.382029	-0.00752177
-0.442036	-0.0106193
-0.392055	-0.0078
-0.452092	-0.00851255
-0.402085	-0.00525377
-0.462061	-0.0130952
-0.412072	-0.00910506
-0.472041	-0.0111151
-0.422045	-0.00708898
-0.482059	-0.00809695
-0.432056	-0.0121349
-0.49202	-0.012824
-0.442039	-0.0104427
-0.502031	-0.0122718
-0.452062	-0.00891537
-0.512011	-0.0110493
-0.462057	-0.00913975
-0.52198	-0.0100552
-0.472049	-0.00834597
-0.532006	-0.0115847
-0.482036	-0.00888844
-0.542036	-0.00616042
-0.492024	0.000286091
-0.552042	-0.00617579
-0.502031	-0.00200595
-0.562034	-0.00654773
-0.512042	5.25822e-05
-0.572014	-0.00190965
-0.522041	-0.00198967
-0.582021	-0.00689487
-0.532048	-0.00126921
-0.591971	-0.00574908
-0.542036	0.000242584
-0.602027	-0.00450974
-0.552058	0.000191014
-0.612049	-0.00229954
-0.562015	0.0011751
-0.621953	-0.00207683
-0.572037	0.00423049
-0.632013	-0.0013862
-0.582025	0.000546373
-0.642001	-0.00377879
-0.592036	-0.00249532
-0.651985	-0.00506422
-0.60205	-0.00514394
-0.661992	-0.00984134
-0.612045	-0.00327024
-0.672003	-0.00859013
-0.622003	-0.00324073
-0.682032	-0.00970808
-0.632006	-0.00231217
-0.692016	-0.0111758
-0.642001	-0.00171737
-0.701958	-0.0072516
-0.651981	-0.00303886
-0.712087	-0.0055641
-0.661942	0.000210638
-0.722159	-0.00467342
-0.671987	0.00331379
-0.732116	-0.00476682
-0.682017	-0.00186721
-0.742058	-0.00684376
-0.692001	0.00160302
-0.752103	-0.00326446
-0.70213	-0.000120077
-0.76208	-0.00890761
-0.712099	-0.00427699
-0.772151	-0.0114995
-0.722094	-0.00299611
-0.782078	-0.0121783
-0.732082	-0.000129661
-0.792108	-0.00948659
-0.742058	-0.00214879
-0.80213	-0.00802454
-0.752096	-0.00149801
-0.812041	-0.00755782
-0.762091	-0.00251662
-0.822102	-0.0119756
-0.772094	-0.00585146
-0.832089	-0.0127781
-0.782086	-0.00135653
-0.8421	-0.00877861
-0.792054	-0.00236541
-0.852057	-0.00779057
-0.802073	0.00571536
-0.862083	-0.0105712
-0.812072	0.00492553
-0.872064	-0.00668844
-0.822094	0.000337813
-0.882059	-0.0104984
-0.832063	-0.00236511
-0.892089	-0.00676922
-0.842058	-0.00162883
-0.902054	-0.0105677
-0.852126	-0.00357707
-0.912087	-0.00796703
-0.862091	-0.00346678
-0.922037	-0.00866908
-0.872102	-0.00391935
-0.932063	-0.015418
-0.882067	-0.00555056
-0.942096	-0.0157471
-0.892081	-0.0106229
-0.952099	-0.0163905
-0.902057	-0.00251982
-0.962026	-0.0135851
-0.912121	-0.00347089
-0.972075	-0.0134558
-0.922025	-0.0102712
-0.982074	-0.0146973
-0.932093	-0.00767161
-0.992008	-0.0133326
-0.942096	-0.00665482
-1.00207	-0.0130922
-0.952023	-0.00183329
-1.01211	-0.0147869
-0.962057	-0.00923315
-1.02202	-0.0153523
-0.972025	-0.00604024
-1.03204	-0.0124793
-0.982024	-0.00628805
-1.04205	-0.0140968
-0.9921	-0.00283958
-1.05206	-0.0144164
-1.0021	-0.00501494
-1.06204	-0.0119606
-1.01206	-0.00558388
-1.07203	-0.0159777
-1.02208	-0.00428003
-1.08204	-0.0156737
-1.03205	-0.00410448
-1.09199	-0.0148661
-1.04206	-0.00668159
-1.10205	-0.0141627
-1.05204	-0.0102869
-1.11203	-0.018429
-1.06201	-0.0113443
-1.12207	-0.0201469
-1.07203	-0.00518683

File: CoPc(OMe)8_CNT_VFSWV_scans_74_73_C02.txt
Ewe/V	<I>/mA
-0.122038	-0.00949921
-0.0720453	-0.00143877
-0.132044	-0.00093732
-0.0820636	-0.000592659
-0.142059	-0.00202309
-0.0920208	-0.00307353
-0.152066	-0.00452316
-0.102077	-0.0056987
-0.162023	-0.00567758
-0.112027	-0.00226336
-0.172026	0.000453104
-0.122061	-0.000177014
-0.181999	-0.000869383
-0.131995	-0.00281265
-0.192025	-0.00204635
-0.142044	-0.00624849
-0.20202	-0.00319965
-0.152043	-0.00411635
-0.212065	-0.0102752
-0.162073	-0.00608053
-0.221988	-0.00947129
-0.172045	-0.00509884
-0.232033	-0.00988074
-0.182067	-0.00375188
-0.242005	-0.00353223
-0.192017	-0.0014209
-0.251993	-0.00639584
-0.202024	-0.00498186
-0.262031	-0.00472697
-0.212	-0.00332365
-0.271973	-0.00692248
-0.222026	-0.00386816
-0.282159	-0.00839171
-0.232056	-0.00687739
-0.292112	-0.00745816
-0.242013	-0.00422094
-0.302104	-0.00626545
-0.251997	-0.0047619
-0.312065	-0.00698727
-0.262	-0.00169763
-0.322091	-0.00479277
-0.271984	-0.00240513
-0.332121	0.00245232
-0.282109	0.0066108
-0.342013	0.00464875
-0.292108	0.00455258
-0.352062	0.00205069
-0.302104	0.00480321
-0.362061	0.00370149
-0.312115	0.00484708
-0.372091	0.0023462
-0.322064	0.00844032
-0.382101	0.00715754
-0.332166	0.00780157
-0.392082	0.00785093
-0.342162	0.00367986
-0.40213	0.000416343
-0.352092	0.0010226
-0.412046	0.0039837
-0.362072	-0.000702536
-0.422018	-0.0048075
-0.372068	0.00133497
-0.432063	-0.00805791
-0.382109	-0.00445999
-0.442059	-0.00724368
-0.392066	-0.00314695
-0.452035	-0.0071858
-0.402069	-0.0076836
-0.462027	-0.0100289
-0.412088	-0.0100487
-0.472026	-0.0127859
-0.422026	-0.0100151
-0.482044	-0.0116168
-0.432029	-0.0104607
-0.492055	-0.0139403
-0.442047	-0.00917039
-0.502062	-0.00949546
-0.452077	-0.00563472
-0.512038	-0.00957152
-0.462065	-0.00883762
-0.522022	-0.00644977
-0.472052	-0.00948419
-0.532048	-0.00258324
-0.482044	-0.00406354
-0.542047	-0.00680164
-0.492024	-0.0035958
-0.552004	-0.00826416
-0.502054	-0.0028617
-0.562011	-0.00300468
-0.512068	-0.00394808
-0.572068	-0.00386085
-0.522049	-0.00197994
-0.581975	-0.00207285
-0.532063	-0.00438576
-0.591986	-0.00816251
-0.542032	-0.00122938
-0.602	-0.00401835
-0.552058	0.00256007
-0.611977	-0.00411919
-0.562011	-0.0026653
-0.622045	-0.00552962
-0.572056	-0.00242523
-0.632002	-0.00974212
-0.582025	-0.00555359
-0.642009	-0.0086598
-0.592043	-0.00792427
-0.651985	-0.0143791
-0.601989	-0.00954908
-0.661954	-0.0134351
-0.612019	-0.00823156
-0.671987	-0.0129818
-0.622052	-0.0106139
-0.681994	-0.00742749
-0.632071	-0.00242371
-0.691974	-0.00412447
-0.642024	-0.000216822
-0.702	0.00218047
-0.651993	0.00470551
-0.712095	-0.00137612
-0.662011	0.0039187
-0.722087	8.32585e-05
-0.672003	0.00250726
-0.732082	-0.00337757
-0.681983	0.00337907
-0.742089	-0.0011981
-0.692032	-0.000146549
-0.752077	-0.00261726
-0.702092	0.000887738
-0.762026	-0.00495535
-0.712049	5.15749e-05
-0.772033	-0.00460815
-0.722056	-0.00124928
-0.782002	-0.00596385
-0.732078	-0.00190479
-0.792043	-0.00462999
-0.742032	0.00509303
-0.802042	-0.00209824
-0.752084	0.00348752
-0.812068	-0.00504969
-0.762053	0.00792811
-0.822079	-0.0012898
-0.772037	0.00376922
-0.832063	-5.35297e-05
-0.782101	0.000178208
-0.84207	-0.00611475
-0.792108	-0.00500004
-0.852122	-0.00828528
-0.802027	-0.00533952
-0.862045	-0.00684551
-0.812057	-0.000134363
-0.87206	-0.00749634
-0.822083	-0.00112468
-0.881994	-0.00474332
-0.832128	-0.000450895
-0.892123	-0.00384612
-0.842077	0.00394531
-0.902057	0.00288279
-0.852103	-0.0026721
-0.912022	-0.00487787
-0.862079	-0.00457251
-0.92209	-0.00548453
-0.872105	0.00201078
-0.932051	-0.00843578
-0.882063	0.00316632
-0.942058	-0.00423922
-0.892058	-0.000781949
-0.952065	-0.0121723
-0.902038	-0.00417545
-0.962034	-0.00713025
-0.912053	0.000222991
-0.972006	-0.00621011
-0.922098	0.00307838
-0.982028	-0.00595065
-0.932051	-0.00221309
-0.992031	-0.00704993
-0.94205	-0.00266195
-1.00202	-0.00410518
-0.952023	-0.00431437
-1.01205	-0.00834093
-0.962057	-0.00202756
-1.02208	-0.00927276
-0.972063	-0.000929501
-1.03204	-0.00434544
-0.981998	-0.0059934
-1.04206	-0.0120362
-0.992058	-0.00798368
-1.05204	-0.00875597
-1.00202	-0.00288586
-1.06209	-0.00810666
-1.01211	-0.00555673
-1.07202	-0.00982387
-1.02209	-0.00872144
-1.08204	-0.0146125
-1.03208	-0.00722723
-1.09201	-0.0148917
-1.04204	-0.0029997
-1.10205	-0.00836642
-1.05202	-1.2808e-05
-1.11207	-0.00316066
-1.06203	0.00670158
-1.12213	-0.00166422
-1.072	0.00381726

File: CoPc(OMe)8_CNT_VFSWV_scans_75_74_C02.txt
Ewe/V	<I>/mA
-0.122099	0.00707214
-0.0721178	0.00775303
-0.132048	0.00535536
-0.0820521	0.00411834
-0.142063	0.00534843
-0.0920972	0.00502292
-0.152039	-0.000825154
-0.102024	7.88117e-05
-0.162061	-0.00165527
-0.112046	0.000488763
-0.172072	-0.0036564
-0.12208	0.0013534
-0.182048	-0.00365007
-0.132033	-0.00224531
-0.192044	-0.00447051
-0.142063	0.000614439
-0.202005	-0.00466249
-0.152028	0.00108932
-0.21208	-0.00978402
-0.16205	-0.00532364
-0.222072	-0.00778769
-0.172011	-0.00883654
-0.232063	-0.0153198
-0.182105	-0.010357
-0.242028	-0.0144551
-0.192021	-0.00924474
-0.252039	-0.0112423
-0.202028	-0.00889423
-0.262053	-0.0106362
-0.212008	-0.00947071
-0.272026	-0.0109182
-0.222064	-0.00393519
-0.282124	-0.0141268
-0.232056	-0.00911784
-0.292147	-0.0136398
-0.242028	-0.0118859
-0.302092	-0.0104004
-0.252005	-0.00249102
-0.312126	-0.00842766
-0.262015	-0.00533957
-0.322102	-0.00727036
-0.272018	-0.0133091
-0.332071	-0.0139122
-0.282117	-0.010954
-0.34207	-0.0100762
-0.292139	-0.00978943
-0.352096	-0.00903157
-0.302134	-0.00875027
-0.362069	-0.0106404
-0.312111	-0.00453857
-0.372068	-0.00384449
-0.32214	-0.00468528
-0.382117	-0.0106564
-0.332063	-0.0085909
-0.392074	-0.00792206
-0.342112	-0.00439011
-0.402088	-0.00490279
-0.352111	-0.00578359
-0.412072	-0.0039124
-0.362141	-0.00365648
-0.422075	-0.00586575
-0.372125	-0.0044904
-0.43209	-0.00381454
-0.382075	-0.00598152
-0.442104	-0.00732249
-0.392089	-0.00634673
-0.452104	-0.00568337
-0.402062	0.00015533
-0.462118	0.000879966
-0.412069	-0.00164079
-0.472083	-0.00737584
-0.422114	-0.00135293
-0.482071	-0.00317374
-0.432048	0.000364078
-0.492001	-0.000873321
-0.442093	-0.0025238
-0.502027	-0.00547401
-0.452046	4.4211e-05
-0.512049	-0.00246077
-0.462069	0.00242366
-0.521984	-0.0017737
-0.472075	-0.00234119
-0.532025	-0.00530779
-0.482021	-0.00422853
-0.542028	-0.00451738
-0.492104	-0.00402748
-0.552039	-0.00570128
-0.502054	-0.00602724
-0.562034	-0.00394624
-0.512023	-0.0062917
-0.572056	-0.00440878
-0.522018	-0.00291302
-0.582036	-0.00629506
-0.532063	-0.00274519
-0.592016	-0.00545252
-0.542009	-0.00571789
-0.602027	-0.00678846
-0.552042	-0.00325613
-0.611984	-0.00316886
-0.562061	-0.0027503
-0.622026	-0.00474374
-0.571991	-0.00469702
-0.632052	-0.00337449
-0.582067	-0.00161396
-0.642032	-0.00392505
-0.592028	-0.0024094
-0.652039	0.00221591
-0.601997	0.00361427
-0.661996	-0.00390234
-0.612072	0.000548438
-0.671991	-0.000415507
-0.622003	0.00384596
-0.682017	0.00109755
-0.632067	0.00436344
-0.692009	-0.00258416
-0.641993	0.000120272
-0.70205	0.000835762
-0.651974	0.00362288
-0.712137	-0.00507694
-0.662015	0.000428707
-0.722056	0.00141658
-0.672026	0.0101016
-0.73212	0.00365161
-0.681964	0.00286997
-0.742127	-0.00272637
-0.691978	-0.000846265
-0.752149	-0.00353865
-0.702138	0.000294876
-0.762091	-0.00472163
-0.712076	-0.00640579
-0.772151	-0.00897189
-0.722125	-0.0050306
-0.782086	-0.0111525
-0.732135	-0.00986511
-0.792142	-0.0109275
-0.742096	-0.0090536
-0.802107	-0.0126922
-0.752088	-0.00915481
-0.812053	-0.0102506
-0.762118	-0.00839748
-0.822067	-0.00572651
-0.772125	-0.00774974
-0.832105	-0.010623
-0.782067	-0.00894613
-0.84207	-0.0120386
-0.792051	-0.00851507
-0.852038	-0.00904369
-0.802138	-0.00574876
-0.86206	-0.00752781
-0.812057	-0.00442554
-0.872048	-0.00853725
-0.822117	-0.00397512
-0.882101	-0.00125134
-0.832051	0.00183873
-0.89207	0.00156482
-0.842093	0.00351618
-0.902057	-0.000897938
-0.852092	0.0040089
-0.912121	0.00249073
-0.862106	0.00337656
-0.922067	-0.00214753
-0.872041	0.00144242
-0.932036	-0.00684158
-0.882135	0.000230248
-0.942073	-0.00238562
-0.892123	0.000761606
-0.952088	-0.00375639
-0.902115	0.000486477
-0.962057	-0.00473032
-0.912102	0.00319914
-0.972102	0.000573817
-0.922052	0.0089713
-0.982093	0.00393337
-0.932139	0.0115786
-0.992069	0.00688123
-0.942089	0.00824651
-1.00206	0.00398642
-0.95205	0.00470137
-1.01211	0.00263363
-0.962099	0.0101153
-1.0221	0.0022861
-0.97206	0.00438517
-1.03206	0.00120402
-0.982135	0.00878107
-1.04209	0.00639803
-0.992123	0.00852248
-1.05208	0.00146909
-1.00208	0.0123952
-1.06207	0.00241437
-1.01208	0.00120844
-1.07204	-0.00284938
-1.02212	0.00190107
-1.08209	-0.00327556
-1.03212	0.000394792
-1.09209	-0.000925146
-1.04208	-0.000674556
-1.10205	-0.00816647
-1.05212	-0.00227862
-1.11211	-0.00668214
-1.0621	0.00120684
-1.12216	-0.00419408
-1.07208	0.00501591

File: CoPc(OMe)8_CNT_VFSWV_scans_76_75_C02.txt
Ewe/V	<I>/mA
-0.122068	0.00585029
-0.0720988	0.00427615
-0.13206	0.00975256
-0.0820521	0.00910188
-0.142078	0.00470008
-0.0921467	0.00700182
-0.152054	0.00553562
-0.102093	0.00275972
-0.162057	0.000190484
-0.112057	0.00334969
-0.17206	0.0020015
-0.122102	0.00333307
-0.182075	0.00785364
-0.132132	0.00178054
-0.192059	-0.00418544
-0.142109	-0.00118695
-0.20207	-0.00353847
-0.152085	-0.000544701
-0.212042	-0.00140054
-0.162096	0.00443112
-0.222068	0.00102232
-0.172053	0.00502262
-0.232041	0.000998882
-0.182022	0.00126108
-0.242066	-0.00411248
-0.192074	0.00473846
-0.252062	0.00266306
-0.20202	0.00802315
-0.262011	0.00390525
-0.212076	0.00888214
-0.272057	0.00410756
-0.22203	0.00966222
-0.28214	0.00737318
-0.23206	0.00751162
-0.292139	0.00630691
-0.242044	0.0040256
-0.302161	0.00390266
-0.252031	0.00180581
-0.312118	0.00386463
-0.262019	0.00690319
-0.32211	0.00282327
-0.271995	0.00538538
-0.332113	0.00380423
-0.282102	0.0107502
-0.342047	0.00780509
-0.292112	0.00639995
-0.352081	0.00267445
-0.302134	0.00643635
-0.362088	0.00347807
-0.312088	0.00849233
-0.372026	0.00823811
-0.322114	0.00618941
-0.382109	0.00100153
-0.332082	0.00479449
-0.392043	0.00099934
-0.34207	0.00401309
-0.402104	0.00292546
-0.352062	0.00676373
-0.412111	0.00505541
-0.362072	0.00501881
-0.42211	0.00749108
-0.372121	0.00982802
-0.432086	0.00709217
-0.382094	0.0088469
-0.442062	0.00703167
-0.392124	0.00466388
-0.452085	0.00212256
-0.402069	0.00637834
-0.462049	0.00991755
-0.412027	0.00798553
-0.47203	0.00536317
-0.422064	0.00133938
-0.482048	0.00109208
-0.432033	0.00337283
-0.492043	0.00290075
-0.44204	0.0064242
-0.502081	-0.00115054
-0.452031	-0.00284843
-0.51208	-7.0695e-05
-0.462046	-0.00213664
-0.522049	-0.00563502
-0.472094	-0.00275783
-0.532101	-0.00592386
-0.482071	-0.00352174
-0.542062	-0.00577641
-0.49207	-0.00768779
-0.552027	-0.00947618
-0.502004	-0.00514912
-0.562026	-0.0105013
-0.512095	-0.01239
-0.572087	-0.0125485
-0.522083	-0.00813795
-0.581998	-0.00791272
-0.532044	-0.0136111
-0.592028	-0.0111024
-0.542058	-0.00902455
-0.602042	-0.00771164
-0.552126	-0.00503253
-0.612026	-0.00660698
-0.562103	-0.0055373
-0.622018	-0.00257307
-0.572049	-0.00297691
-0.632048	-0.00762764
-0.582059	-0.00532681
-0.642028	-0.00800942
-0.592032	-0.00604517
-0.652031	-0.00463977
-0.602023	-0.0043791
-0.661897	-0.00530907
-0.61203	-0.00496806
-0.672052	-0.00243895
-0.622033	-0.00535513
-0.682017	-0.00846929
-0.631998	-0.00846619
-0.691993	-0.00932248
-0.642043	-0.00944395
-0.701974	-0.0163175
-0.652065	-0.00955214
-0.712114	-0.0127131
-0.66203	-0.010625
-0.722056	-0.0120492
-0.672029	-0.00746734
-0.732086	-0.00961971
-0.682036	-0.00572445
-0.742127	-0.00565551
-0.692009	-0.00778577
-0.75213	-0.00945803
-0.702134	-0.0099691
-0.762091	-0.00775475
-0.712068	-0.00658751
-0.77209	-0.0131149
-0.722071	-0.0142515
-0.782082	-0.0163235
-0.732101	-0.0152243
-0.792089	-0.0173236
-0.742073	-0.0166076
-0.802054	-0.0112983
-0.752088	-0.0056009
-0.812041	-0.00767864
-0.762049	-0.00761066
-0.822075	-0.00812458
-0.772144	-0.0069643
-0.832097	-0.00620725
-0.78209	-0.00182111
-0.842066	-0.00340531
-0.792047	-1.24802e-05
-0.852122	-0.00279256
-0.802096	-0.00121044
-0.862102	0.00182162
-0.81208	0.00680939
-0.872117	-0.00253646
-0.822071	-0.00538528
-0.882074	-0.00792589
-0.832101	-0.0018838
-0.892077	-0.00766318
-0.842085	-0.00502191
-0.902099	-0.0111561
-0.852141	-0.0101713
-0.91208	-0.0104319
-0.862099	-0.000241882
-0.922071	-0.00434855
-0.872113	0.0022581
-0.932074	-0.00121476
-0.882044	0.00269637
-0.942073	-0.00476515
-0.892039	0.000577396
-0.952065	-0.00350288
-0.90205	0.000982562
-0.962011	0.000731501
-0.912034	0.00374073
-0.972025	-0.00470902
-0.922033	-0.00220517
-0.982032	-0.0120292
-0.932059	-0.00561392
-0.991966	-0.00829094
-0.9421	-0.00569796
-1.00206	-0.0066563
-0.952023	-0.0101063
-1.01213	-0.0130263
-0.962057	-0.00917468
-1.02206	-0.0122272
-0.972063	-0.00497523
-1.03207	-0.0118861
-0.982028	-0.0091
-1.04208	-0.0103659
-0.992043	-0.0037335
-1.05205	-0.00860698
-1.0021	-0.00267903
-1.06205	-0.00796519
-1.01208	-0.0073596
-1.07206	-0.0108622
-1.022	-0.010634
-1.08205	-0.0117841
-1.03202	-0.00791536
-1.09199	-0.0112423
-1.04206	-0.00571621
-1.10206	-0.0176347
-1.05205	-0.0112246
-1.11206	-0.0117165
-1.06203	-0.00790728
-1.12213	-0.00828123
-1.07204	-0.00221448