Folder: ElectrochemLabUtils/VFSWV_data_prep/Example_data/CoPc(OMe)8_VFSWV_txt_data (part 10)

File: CoPc(OMe)8_CNT_VFSWV_scans_55_54_C02.txt
Ewe/V	<I>/mA
-0.12211	0.00717103
-0.0721598	0.0180531
-0.132106	-0.000465535
-0.0820903	0.015269
-0.142097	0.00174589
-0.0920781	0.0133121
-0.152066	0.000584494
-0.102062	0.0133917
-0.162015	0.0020959
-0.112107	0.0134394
-0.172064	-0.0044111
-0.122091	0.0167167
-0.182048	-0.00367926
-0.132071	0.0122939
-0.192074	-0.00156329
-0.142116	0.0148235
-0.202043	-0.00595432
-0.152035	0.0173213
-0.212054	-0.000815544
-0.162057	0.0137417
-0.222041	-0.00612932
-0.17206	0.0109416
-0.232037	-0.00829302
-0.182052	0.00769605
-0.242013	-0.00784755
-0.192055	0.0121189
-0.252047	-0.00800665
-0.202001	0.00803015
-0.262031	-0.0133682
-0.212038	0.00822106
-0.27203	-0.0126045
-0.222045	0.0103688
-0.282155	-0.0119522
-0.232033	0.00338457
-0.292131	-0.0156909
-0.242066	0.00772787
-0.302169	-0.0148955
-0.252024	0.00922336
-0.312134	-0.0137977
-0.262008	0.00809379
-0.322175	-0.01585
-0.272037	0.00699603
-0.332121	-0.0180296
-0.282098	0.0117689
-0.342078	-0.0137182
-0.292124	0.00537326
-0.352066	-0.0143864
-0.302119	0.0120871
-0.362122	-0.0132886
-0.312126	0.0112757
-0.372091	-0.0131772
-0.322121	0.00771196
-0.38209	-0.0140523
-0.332136	0.0110689
-0.392123	-0.0171228
-0.342108	0.00984383
-0.402108	-0.0138295
-0.352115	0.00503916
-0.412084	-0.0176478
-0.362122	0.0144894
-0.422102	-0.0209729
-0.372102	0.00812561
-0.432101	-0.0155159
-0.382098	0.0132007
-0.442078	-0.0119204
-0.392131	0.012103
-0.452092	-0.00764073
-0.402107	0.0190554
-0.46208	-0.0110295
-0.412107	0.0107666
-0.472087	-0.0150864
-0.42214	0.0105916
-0.482098	-0.0177274
-0.432067	0.0112121
-0.492059	-0.019016
-0.442101	0.0109575
-0.502107	-0.0190956
-0.452046	0.00869835
-0.512126	-0.0239321
-0.46211	0.0113711
-0.522068	-0.0238048
-0.47206	0.00873017
-0.532052	-0.0214979
-0.482036	0.013153
-0.542058	-0.021132
-0.492028	0.0132326
-0.552081	-0.0250457
-0.502042	0.0151894
-0.562046	-0.0258889
-0.512057	0.013153
-0.572045	-0.0313459
-0.522079	0.021076
-0.582071	-0.0261594
-0.53204	0.0181009
-0.592043	-0.0312664
-0.542097	0.0192145
-0.602073	-0.0389825
-0.552027	0.0165736
-0.612007	-0.0371688
-0.562061	0.0178781
-0.622033	-0.0421007
-0.572052	0.0164145
-0.632067	-0.0457918
-0.582055	0.0186259
-0.641959	-0.0484327
-0.592081	0.0183236
-0.652039	-0.0495464
-0.602061	0.022651
-0.662015	-0.0493873
-0.612065	0.0297307
-0.672033	-0.0487509
-0.622113	0.0211237
-0.68204	-0.0521078
-0.631983	0.026867
-0.692051	-0.0521715
-0.642058	0.0254829
-0.702016	-0.0554966
-0.652004	0.0203282
-0.712148	-0.0534442
-0.662038	0.0246556
-0.72214	-0.0541443
-0.672045	0.0256579
-0.732139	-0.0518692
-0.682013	0.0270261
-0.742123	-0.0537465
-0.692047	0.0274716
-0.75208	-0.054717
-0.702161	0.0218237
-0.762114	-0.0512964
-0.712141	0.0267557
-0.772109	-0.052951
-0.722144	0.0217442
-0.782086	-0.0543829
-0.732082	0.0238601
-0.792131	-0.0519328
-0.742104	0.0225396
-0.802061	-0.0555761
-0.752149	0.0216487
-0.812083	-0.0500237
-0.762095	0.0249579
-0.822121	-0.0553375
-0.772052	0.0216487
-0.832036	-0.0543033
-0.78209	0.01931
-0.842096	-0.0579784
-0.792081	0.015619
-0.852096	-0.0568966
-0.802099	0.0174486
-0.862087	-0.0578989
-0.81206	0.0190873
-0.872079	-0.0561966
-0.822094	0.0165895
-0.882078	-0.0586785
-0.83204	0.0124053
-0.892108	-0.0573739
-0.84207	0.0136303
-0.902088	-0.0590285
-0.852061	0.0189123
-0.912053	-0.0626558
-0.862099	0.0200418
-0.922067	-0.0581057
-0.872167	0.0184032
-0.932108	-0.0547965
-0.882086	0.014569
-0.942054	-0.0580103
-0.892054	0.0160645
-0.952069	-0.0572466
-0.90205	0.0142985
-0.962011	-0.0547647
-0.912118	0.0206941
-0.971999	-0.0508033
-0.922067	0.0211714
-0.982036	-0.0586307
-0.932097	0.0153008
-0.992016	-0.0582171
-0.942127	0.0155554
-1.00205	-0.059983
-0.952027	0.0188804
-1.01205	-0.0595694
-0.962099	0.0175759
-1.02207	-0.0568807
-0.972071	0.015094
-1.03202	-0.0615899
-0.982047	0.0134712
-1.04209	-0.0606831
-0.992077	0.0151735
-1.05202	-0.0622581
-1.00207	0.0124371
-1.06207	-0.0626081
-1.01208	0.0107348
-1.07206	-0.0651059
-1.02206	0.0152372
-1.08208	-0.0648036
-1.03206	0.0120393
-1.09202	-0.0686378
-1.04209	0.015094
-1.10207	-0.0673492
-1.05205	0.0100984
-1.11203	-0.0732675
-1.06204	0.0100347
-1.12214	-0.0773085
-1.07203	0.00530962

File: CoPc(OMe)8_CNT_VFSWV_scans_56_55_C02.txt
Ewe/V	<I>/mA
-0.122057	-0.00161102
-0.0720797	0.00979978
-0.132029	-0.000920792
-0.0820712	0.00771441
-0.142055	-9.8392e-05
-0.0920896	0.00784658
-0.152043	-0.00776433
-0.102081	0.00631926
-0.162015	-0.00866016
-0.112077	0.00238349
-0.172022	-0.00937976
-0.122053	0.00398424
-0.182025	-0.0102315
-0.132048	0.00648081
-0.19204	-0.0166492
-0.142093	0.00809623
-0.202062	-0.00644262
-0.15207	0.00620178
-0.212054	-0.00842519
-0.162042	0.00480663
-0.222007	-0.00970285
-0.172003	0.00251566
-0.232025	-0.0147107
-0.182063	0.00369052
-0.242051	-0.016282
-0.192028	0.00767035
-0.252035	-0.0166492
-0.202035	0.00339681
-0.262065	-0.0165023
-0.212073	0.00323526
-0.272041	-0.0174422
-0.222049	0.000591837
-0.282124	-0.0203794
-0.232029	0.00535001
-0.292128	-0.0200416
-0.242021	0.00116458
-0.302134	-0.0208493
-0.252001	-3.96491e-05
-0.312118	-0.0187639
-0.262031	0.000738694
-0.322167	-0.0163848
-0.272037	0.00176669
-0.332071	-0.0181178
-0.282109	0.00257441
-0.34212	-0.0178387
-0.292135	-0.000538963
-0.35213	-0.0195276
-0.302108	0.00255972
-0.362095	-0.0152834
-0.312156	0.00449823
-0.372083	-0.0160618
-0.322175	0.00480663
-0.382132	-0.0153715
-0.332079	-0.00118513
-0.392085	-0.0216717
-0.342104	0.00263315
-0.402081	-0.0252991
-0.352077	0.000621208
-0.412034	-0.0242564
-0.362057	0.00366115
-0.422075	-0.0222151
-0.372125	0.00360241
-0.432101	-0.0183821
-0.382094	0.00376395
-0.442074	-0.0284418
-0.392097	0.00564372
-0.452054	-0.0198066
-0.402092	0.0142202
-0.462068	-0.0176625
-0.412099	0.00665703
-0.472049	-0.0194395
-0.422117	0.00903612
-0.48209	-0.0194688
-0.432063	0.00581995
-0.492066	-0.0192779
-0.442085	0.00584932
-0.502062	-0.0212311
-0.452092	0.0143817
-0.51208	-0.0234487
-0.462084	0.0150279
-0.522056	-0.0237864
-0.472056	0.00819903
-0.532086	-0.0239627
-0.482078	0.00765566
-0.542047	-0.0246235
-0.492062	0.00690669
-0.552073	-0.0235515
-0.502043	0.008434
-0.562053	-0.0238599
-0.512065	0.00830183
-0.57206	-0.0319223
-0.52203	0.0114886
-0.582032	-0.0271642
-0.53204	0.0122963
-0.592016	-0.0336406
-0.54207	0.00811092
-0.602088	-0.0385162
-0.552035	0.0110921
-0.612061	-0.0390743
-0.562019	0.00852212
-0.622052	-0.0438324
-0.572045	0.0102844
-0.632036	-0.0454772
-0.582074	0.0195511
-0.64199	-0.0451835
-0.591978	0.0113124
-0.652008	-0.0508228
-0.602031	0.00565841
-0.661992	-0.0523648
-0.612061	0.00890395
-0.671991	-0.0511753
-0.621987	0.0147342
-0.682013	-0.0572111
-0.632067	0.0153069
-0.692005	-0.0564621
-0.642058	0.0145579
-0.702042	-0.0526439
-0.652088	0.0138677
-0.712103	-0.0581363
-0.662034	0.0116502
-0.722136	-0.055581
-0.672033	0.0148076
-0.732112	-0.0573286
-0.681987	0.0114593
-0.742066	-0.0634379
-0.692009	0.00855149
-0.752084	-0.0601189
-0.702057	0.0111655
-0.762106	-0.0584594
-0.712148	0.0191839
-0.772106	-0.059972
-0.72206	0.0115914
-0.782055	-0.0590028
-0.732082	0.0133243
-0.792131	-0.0595755
-0.74207	0.0106075
-0.802092	-0.0612056
-0.75205	0.00988789
-0.812038	-0.05843
-0.762026	0.00642206
-0.822086	-0.0572405
-0.772102	0.00451292
-0.832093	-0.0590175
-0.782086	0.00241286
-0.842093	-0.0601776
-0.792085	0.00524721
-0.852073	-0.0590615
-0.802107	0.00695075
-0.862122	-0.0591643
-0.812045	0.00950606
-0.87209	-0.0589293
-0.822113	0.00730321
-0.882059	-0.0596783
-0.832101	0.00899206
-0.892054	-0.0649505
-0.842093	0.00706823
-0.902023	-0.0698849
-0.852061	0.00705355
-0.912083	-0.0665659
-0.862053	0.00489475
-0.922151	-0.0632029
-0.872094	0.000151265
-0.932086	-0.0660225
-0.882047	0.00161984
-0.942024	-0.0600014
-0.892138	0.00436606
-0.952019	-0.0599573
-0.902061	0.00405766
-0.962057	-0.0624392
-0.912095	0.00554092
-0.972098	-0.063805
-0.922063	0.00443949
-0.982074	-0.0628504
-0.932055	0.00496818
-0.992066	-0.0613378
-0.942054	0.00405766
-1.00207	-0.0607504
-0.952042	0.00645143
-1.01202	-0.0622043
-0.962053	0.000841494
-1.02209	-0.0678876
-0.97209	0.00332338
-1.03211	-0.0631882
-0.982066	-0.00208096
-1.04205	-0.0678142
-0.992138	-0.00234531
-1.05203	-0.0699289
-1.00207	-0.00262433
-1.06202	-0.0736444
-1.01207	0.000724008
-1.07204	-0.0726605
-1.02204	-0.00497405
-1.08209	-0.074599
-1.03205	0.00213384
-1.09202	-0.0737179
-1.04203	-0.00103828
-1.102	-0.0783439
-1.0521	-0.00575239
-1.11203	-0.0797684
-1.06205	-0.00158165
-1.12212	-0.0865385
-1.07208	-0.00880702

File: CoPc(OMe)8_CNT_VFSWV_scans_57_56_C02.txt
Ewe/V	<I>/mA
-0.122145	-0.00390199
-0.0721064	0.00819802
-0.132044	-0.00486315
-0.0820903	0.00584122
-0.142013	-0.00375716
-0.0920514	0.00509073
-0.152058	-0.00392832
-0.102035	0.0112395
-0.162038	0.00169377
-0.112073	0.00769769
-0.172041	-0.00525814
-0.12208	0.00194393
-0.182041	-0.0131975
-0.132125	0.00124611
-0.192013	-0.00998491
-0.142078	0.00394524
-0.202081	-0.00889209
-0.15202	0.00240476
-0.21205	-0.0146985
-0.162107	-0.00029437
-0.222053	-0.0178716
-0.172022	0.00382674
-0.232029	-0.0171475
-0.182048	-0.000649866
-0.242009	-0.017503
-0.192025	0.000943281
-0.252016	-0.0206498
-0.202058	-0.000399702
-0.262008	-0.0191751
-0.212057	-0.00195335
-0.272003	-0.0211501
-0.222003	-0.00111069
-0.28209	-0.0213213
-0.232037	-0.0057848
-0.29212	-0.0225063
-0.242044	0.00357658
-0.302115	-0.0207288
-0.252062	-0.00450765
-0.312126	-0.0211369
-0.262042	-0.00266434
-0.322133	-0.0153832
-0.272011	-0.00438915
-0.332067	-0.0197281
-0.282155	-0.000676199
-0.342089	-0.019083
-0.292139	0.00216777
-0.352096	-0.0208604
-0.302176	-0.00163735
-0.362114	-0.0241389
-0.312084	0.000521953
-0.372102	-0.0169368
-0.322091	-0.000702531
-0.382082	-0.0195438
-0.332109	0.000693117
-0.392127	-0.019241
-0.342089	0.00129878
-0.402088	-0.0204391
-0.352104	-0.00245368
-0.412069	-0.0199388
-0.362114	-0.00107119
-0.42211	-0.0207024
-0.372079	-0.000175872
-0.432036	-0.0203206
-0.382147	-0.00129502
-0.44207	-0.0233357
-0.392082	0.0021941
-0.452024	-0.0247709
-0.402077	0.000732617
-0.46203	-0.0213213
-0.412076	-0.000123205
-0.472083	-0.0235991
-0.422083	-0.00147935
-0.482105	-0.0251527
-0.432086	0.00229943
-0.492055	-0.0257715
-0.442043	0.00245743
-0.502073	-0.0226906
-0.45202	0.000732617
-0.512046	-0.0253239
-0.462091	0.00169377
-0.522041	-0.0271145
-0.472087	-0.00128186
-0.532036	-0.0321178
-0.482105	0.0021941
-0.542074	-0.0255477
-0.492036	-0.00113703
-0.55205	-0.0291817
-0.502084	0.000600952
-0.562019	-0.0275754
-0.512091	0.00104861
-0.572052	-0.0306036
-0.522049	0.00426124
-0.582021	-0.0314463
-0.532036	0.00689454
-0.592066	-0.0298137
-0.5421	0.00898801
-0.602019	-0.0332896
-0.55202	0.00894851
-0.612034	-0.0363837
-0.561965	0.0074607
-0.622041	-0.0386615
-0.572091	0.00807952
-0.631998	-0.042493
-0.582036	0.0120295
-0.642028	-0.0429407
-0.592055	0.0121348
-0.652008	-0.0437965
-0.602073	0.0129775
-0.662026	-0.0438491
-0.612019	0.00933034
-0.672026	-0.0460348
-0.621991	0.0150709
-0.682002	-0.0484706
-0.632002	0.0135831
-0.692012	-0.0482073
-0.642013	0.0112921
-0.701997	-0.0474831
-0.652042	0.0151104
-0.712095	-0.0507616
-0.662034	0.0148866
-0.722079	-0.0501032
-0.672052	0.0138991
-0.73209	-0.0492342
-0.682002	0.0109103
-0.74207	-0.0470091
-0.692043	0.0049064
-0.752061	-0.0557253
-0.702084	0.012227
-0.76208	-0.0524469
-0.712095	0.00897484
-0.772109	-0.0525127
-0.722102	0.0110947
-0.78212	-0.053803
-0.732078	0.0116345
-0.792074	-0.0493132
-0.742104	0.00825069
-0.802115	-0.0448761
-0.752088	0.0147154
-0.812106	-0.0445733
-0.76208	0.0118846
-0.822056	-0.0549748
-0.772067	0.00570955
-0.832086	-0.0563968
-0.782082	0.00739486
-0.84207	-0.0557253
-0.792077	0.00915917
-0.852092	-0.054514
-0.802057	0.00555155
-0.862053	-0.0552118
-0.812072	0.00414274
-0.872086	-0.0598728
-0.822079	0.00564372
-0.882093	-0.0579768
-0.832109	0.00303675
-0.892127	-0.0543692
-0.842119	0.00667071
-0.902111	-0.0552777
-0.852077	0.0071447
-0.91203	-0.0551855
-0.862118	0.0048274
-0.922079	-0.0543297
-0.872147	0.00725003
-0.932086	-0.0560018
-0.882124	0.00484056
-0.942047	-0.0583323
-0.892062	0.0047484
-0.952073	-0.054514
-0.902073	0.00530139
-0.962068	-0.0577266
-0.912091	0.00291826
-0.972052	-0.0532895
-0.92209	0.00182544
-0.982028	-0.0576608
-0.93207	0.00545939
-0.992066	-0.0572526
-0.942096	0.000153291
-1.00203	-0.0582533
-0.952053	0.00365558
-1.01211	-0.0616503
-0.962049	-0.00033387
-1.02205	-0.0590696
-0.972014	0.00372141
-1.03199	-0.0580426
-0.981986	0.00434024
-1.04211	-0.0625982
-0.992081	0.00432707
-1.05206	-0.0667852
-1.00205	-0.00437598
-1.06206	-0.0629801
-1.01204	-0.00196652
-1.07203	-0.064876
-1.02199	-0.000847363
-1.08203	-0.0752907
-1.03201	0.00132511
-1.09202	-0.0687338
-1.042	-0.003507
-1.10208	-0.071275
-1.05205	-0.00191385
-1.11201	-0.0713408
-1.06204	-0.00242734
-1.12209	-0.0738424
-1.072	-0.000926362

File: CoPc(OMe)8_CNT_VFSWV_scans_58_57_C02.txt
Ewe/V	<I>/mA
-0.122041	-8.37043e-05
-0.0720797	-0.0020298
-0.132033	-0.0142483
-0.0820979	-0.000785777
-0.142078	-0.0127333
-0.0921086	-0.00322455
-0.152093	-0.00982649
-0.102093	-0.000502486
-0.16208	-0.0153445
-0.112057	-0.00098285
-0.172106	-0.0169827
-0.122102	-0.00461638
-0.182048	-0.0212321
-0.132079	-0.00646394
-0.192044	-0.0150489
-0.142051	0.000211903
-0.202028	-0.0120928
-0.152123	-0.00374187
-0.212046	-0.0151598
-0.162054	-0.0046287
-0.22203	-0.0175862
-0.172015	-0.00464101
-0.232041	-0.0196432
-0.182018	0.000692268
-0.24199	-0.0176724
-0.192051	-0.000613339
-0.252008	-0.017229
-0.202028	-9.60233e-05
-0.262042	-0.0153815
-0.212054	0.000421293
-0.272041	-0.019015
-0.222041	-0.00271955
-0.282143	-0.0174384
-0.232021	-0.00291663
-0.29212	-0.0181159
-0.242047	-0.00170956
-0.302127	-0.0160835
-0.252062	0.00189934
-0.312118	-0.0186332
-0.262004	-0.00331077
-0.322121	-0.0175616
-0.27203	-0.00385272
-0.332086	-0.0204438
-0.282102	-0.00126614
-0.342097	-0.0186455
-0.292128	-0.0010198
-0.352096	-0.0161205
-0.302169	-0.0004409
-0.362114	-0.0173768
-0.312122	-0.00206675
-0.372121	-0.0180296
-0.322083	-0.000490168
-0.382147	-0.0195323
-0.332098	-0.000564071
-0.392078	-0.0199511
-0.342085	0.0012219
-0.402104	-0.0207148
-0.352134	0.00157909
-0.412072	-0.0188672
-0.362099	-0.00175882
-0.422106	-0.0191998
-0.372102	-0.00385272
-0.432071	-0.0217124
-0.382086	0.0017269
-0.442051	-0.0226362
-0.392085	0.000544463
-0.452092	-0.0216632
-0.402108	0.000482878
-0.462068	-0.0192613
-0.412049	0.00076617
-0.472052	-0.0252967
-0.422095	-0.000613339
-0.482094	-0.0178079
-0.432071	-0.00271955
-0.492093	-0.0229934
-0.442036	-0.000145291
-0.502065	-0.0233999
-0.452027	0.00415336
-0.51203	-0.0239049
-0.462038	-0.00252248
-0.522075	-0.0230057
-0.472083	0.00156678
-0.532044	-0.0267255
-0.482075	0.000113367
-0.542058	-0.0285361
-0.492028	-0.000157608
-0.552035	-0.0290164
-0.50205	-0.00280577
-0.562007	-0.0317508
-0.51208	0.00031044
-0.571976	-0.0312705
-0.522079	-0.00150017
-0.582063	-0.0329702
-0.532025	0.000273488
-0.592043	-0.0344236
-0.54207	-0.00377882
-0.602023	-0.0392889
-0.552027	0.00055678
-0.612015	-0.0417769
-0.562023	0.000458244
-0.622018	-0.0428485
-0.572014	-0.000169925
-0.632044	-0.0426884
-0.582055	0.00198556
-0.642016	-0.0426884
-0.592032	0.00451055
-0.652	-0.0451025
-0.602065	0.000507512
-0.662042	-0.0465806
-0.612019	0.0111125
-0.672018	-0.0482187
-0.622006	0.00843969
-0.682009	-0.0462234
-0.63204	0.0121718
-0.692032	-0.0466298
-0.641974	0.00579153
-0.701985	-0.0526159
-0.652012	0.00807018
-0.712114	-0.052037
-0.662015	0.0107799
-0.722102	-0.0499554
-0.671999	0.00905554
-0.732074	-0.0460632
-0.682009	0.0102626
-0.742066	-0.0477999
-0.692012	0.0111125
-0.752122	-0.0461618
-0.702084	0.0119377
-0.762103	-0.0431441
-0.712133	0.0107183
-0.772106	-0.0464328
-0.722067	0.01094
-0.782143	-0.0471225
-0.732093	0.0114204
-0.792054	-0.0507807
-0.742073	0.00731884
-0.802107	-0.043957
-0.752077	0.0097453
-0.81208	-0.0441787
-0.762099	0.0119747
-0.822121	-0.0440925
-0.772121	0.0106198
-0.832097	-0.04477
-0.782109	0.00750359
-0.842058	-0.0479231
-0.792073	0.00999164
-0.852096	-0.0456198
-0.802042	0.00965908
-0.862045	-0.0464081
-0.812087	0.0117037
-0.872117	-0.0429101
-0.822071	0.0123196
-0.882055	-0.0457184
-0.832055	0.00933883
-0.892131	-0.0474797
-0.842115	0.0083781
-0.902099	-0.0474797
-0.85213	0.0103858
-0.912007	-0.0458415
-0.86211	0.00681384
-0.922083	-0.0390672
-0.872102	0.00867371
-0.932055	-0.0443881
-0.882059	0.0101764
-0.942077	-0.0429593
-0.892081	0.0135636
-0.952069	-0.0460756
-0.902057	0.0103611
-0.962079	-0.0467899
-0.912022	0.0126152
-0.972018	-0.0432426
-0.922113	0.00932652
-0.982082	-0.0469624
-0.932082	0.00821798
-0.992035	-0.0497091
-0.942005	0.0100532
-1.00206	-0.0433412
-0.952096	0.0105213
-1.01204	-0.0481079
-0.962087	0.0098192
-1.02204	-0.03972
-0.972037	0.0144627
-1.03206	-0.0461371
-0.982028	0.0087353
-1.04201	-0.0462234
-0.992031	0.0134897
-1.05208	-0.0503373
-1.00202	0.00771298
-1.06203	-0.0556336
-1.01203	0.00552055
-1.07201	-0.050559
-1.02201	0.00825493
-1.08209	-0.0609669
-1.03202	0.00589006
-1.09203	-0.0575674
-1.04204	0.00437506
-1.10206	-0.0571486
-1.05204	0.0055575
-1.11207	-0.0593287
-1.06202	0.00267531
-1.12212	-0.0629499
-1.07207	0.00221958

File: CoPc(OMe)8_CNT_VFSWV_scans_59_58_C02.txt
Ewe/V	<I>/mA
-0.122064	-0.0107749
-0.0720797	0.00609293
-0.132056	-0.0121225
-0.0821018	0.00142115
-0.142036	-0.0109883
-0.092101	0.000253201
-0.152058	-0.00929251
-0.102062	-0.00184685
-0.162054	-0.0152445
-0.11208	-0.00320571
-0.172083	-0.0134702
-0.122053	-0.00384584
-0.182014	-0.0175131
-0.132052	-0.00667586
-0.192051	-0.0171986
-0.142101	-0.0007126
-0.202066	-0.0114936
-0.152054	0.00154468
-0.21205	-0.0192201
-0.162096	-0.00850639
-0.222072	-0.0183104
-0.17203	-0.0064288
-0.232056	-0.0196131
-0.182021	-0.00504748
-0.242032	-0.0209046
-0.192051	-0.003756
-0.252031	-0.0202532
-0.202047	-0.00410413
-0.262031	-0.0211629
-0.212004	-0.00544053
-0.271984	-0.02351
-0.222087	-0.00891068
-0.282094	-0.0191077
-0.232109	-0.00402552
-0.292108	-0.0248913
-0.242044	-0.00670955
-0.302096	-0.024779
-0.252008	-0.00243083
-0.312092	-0.0250598
-0.262008	-0.00763043
-0.322137	-0.0223084
-0.272014	-0.00766412
-0.332079	-0.0245993
-0.282147	0.00167944
-0.342112	-0.0162553
-0.292078	-0.000117397
-0.3521	-0.0206463
-0.302069	0.00383565
-0.362103	-0.0167943
-0.312092	-0.00322818
-0.372075	-0.0214436
-0.322121	-0.00352016
-0.38209	-0.0207474
-0.332117	0.00155591
-0.392097	-0.0165248
-0.342097	-0.00659725
-0.402092	-0.0210169
-0.352054	-0.00109443
-0.412057	-0.0185575
-0.362095	-0.00458704
-0.42203	-0.0201072
-0.372095	-0.00266666
-0.432067	-0.0153905
-0.38209	-0.00194793
-0.44212	-0.0206575
-0.392051	-0.000196008
-0.452104	-0.0185687
-0.402104	-0.00124042
-0.462053	-0.0211292
-0.412091	0.00109547
-0.472075	-0.0185125
-0.422014	-0.00380092
-0.482052	-0.024094
-0.432063	0.00181421
-0.492051	-0.0143124
-0.442017	0.00271263
-0.502058	-0.0256662
-0.452096	0.00565495
-0.51208	-0.0210506
-0.462072	0.00359982
-0.522049	-0.0229934
-0.472064	-0.000611528
-0.532109	-0.018243
-0.482071	0.000331813
-0.542058	-0.0231956
-0.492097	-0.00106074
-0.552035	-0.0222298
-0.502073	0.000253202
-0.562007	-0.0280133
-0.51208	0.000545188
-0.572091	-0.0272834
-0.522026	0.00219603
-0.582025	-0.0267106
-0.532067	-0.000959666
-0.592058	-0.0326739
-0.542066	0.00453193
-0.602058	-0.0278786
-0.551989	0.00535173
-0.612042	-0.0338306
-0.562072	0.0082716
-0.622003	-0.028339
-0.572064	0.00338644
-0.632048	-0.034044
-0.582063	0.00263401
-0.642005	-0.0370874
-0.592036	0.00297092
-0.652004	-0.0399736
-0.602054	0.00368966
-0.661996	-0.0420287
-0.612068	0.00301584
-0.672056	-0.0427025
-0.622079	0.00410518
-0.682059	-0.0476438
-0.632082	0.00530681
-0.692013	-0.0455999
-0.642077	0.00406025
-0.702019	-0.0448924
-0.652027	0.00349874
-0.712122	-0.0462849
-0.661954	0.00532927
-0.722079	-0.0451058
-0.672026	0.00528435
-0.732101	-0.0488342
-0.681983	0.00744056
-0.742165	-0.0461277
-0.692001	0.00499237
-0.752103	-0.0454988
-0.702122	0.00188159
-0.762072	-0.0477673
-0.712152	0.00295969
-0.772094	-0.0498562
-0.722086	0.00347628
-0.782082	-0.0469026
-0.732124	0.00116285
-0.792089	-0.0481829
-0.742077	0.00600309
-0.802099	-0.0456224
-0.752138	0.00536296
-0.812034	-0.0440614
-0.762041	0.00364474
-0.822056	-0.0491487
-0.772102	0.00593571
-0.832047	-0.0448699
-0.782086	0.0057111
-0.842054	-0.04624
-0.792066	-0.000184778
-0.852111	-0.0507209
-0.802038	0.00678921
-0.862091	-0.0463636
-0.812118	0.004487
-0.872121	-0.0460828
-0.822075	0.00391426
-0.882078	-0.0465882
-0.83207	0.00449823
-0.892115	-0.0486433
-0.842043	0.00206127
-0.902042	-0.0485647
-0.852126	0.00132007
-0.912068	-0.0467678
-0.86206	0.000331813
-0.922052	-0.0485647
-0.872033	0.00583463
-0.932097	-0.0483401
-0.882093	0.000129669
-0.942077	-0.0482053
-0.892077	0.00338644
-0.952088	-0.0508444
-0.902054	0.00264524
-0.962087	-0.0513498
-0.912057	0.00319553
-0.972082	-0.0490476
-0.922018	0.00465546
-0.98204	-0.0467678
-0.93212	0.00467792
-0.992016	-0.0460267
-0.942081	0.00480145
-1.00203	-0.047116
-0.952038	0.00577848
-1.01206	-0.0505861
-0.962003	0.00439716
-1.02202	-0.0484524
-0.972056	0.00365597
-1.03201	-0.0519787
-0.982047	0.00712611
-1.04207	-0.0489465
-0.992058	0.00328537
-1.05203	-0.0515969
-1.00201	0.00427363
-1.06208	-0.0511926
-1.01201	0.00371212
-1.07205	-0.0505861
-1.02204	0.0036672
-1.08203	-0.050092
-1.03203	0.00298215
-1.09207	-0.0561114
-1.04207	0.00179174
-1.102	-0.0537531
-1.05206	0.00299338
-1.11198	-0.0574703
-1.06205	0.00251048
-1.12207	-0.0602329
-1.07206	0.00246556

File: CoPc(OMe)8_CNT_VFSWV_scans_60_59_C02.txt
Ewe/V	<I>/mA
-0.122034	0.0125166
-0.0720606	0.0120393
-0.132083	0.00334214
-0.0820635	0.00986505
-0.142055	-0.00332925
-0.0920934	0.00508158
-0.152043	-0.0020777
-0.10207	0.0104802
-0.16208	-0.00678692
-0.112038	0.00199514
-0.172049	-0.0065854
-0.122038	0.00609979
-0.182022	-0.00703086
-0.132037	0.00132694
-0.192028	-0.00796422
-0.142044	0.00156028
-0.20205	-0.00505808
-0.152066	0.00464672
-0.212004	-0.00773088
-0.162031	0.00153906
-0.222015	-0.0094279
-0.172049	0.00152846
-0.232048	-0.0133522
-0.182063	0.0039467
-0.242036	-0.0100537
-0.192044	0.00646041
-0.252031	-0.0132144
-0.201982	0.00258909
-0.262034	-0.0158553
-0.212023	-0.0007413
-0.272045	-0.0117931
-0.221988	0.000754195
-0.282128	-0.0124719
-0.232044	0.00306638
-0.29207	-0.0165872
-0.242051	0.000764802
-0.3021	-0.0144765
-0.252008	-0.00228983
-0.312084	-0.0149432
-0.261996	-0.000529172
-0.322133	-0.0150705
-0.272037	0.0025997
-0.332059	-0.0116764
-0.28209	0.00154967
-0.342051	-0.0116764
-0.29212	0.0010936
-0.352123	-0.00422018
-0.302127	0.00281183
-0.362118	-0.00968245
-0.312126	0.00402095
-0.372102	-0.0137977
-0.322133	0.00263152
-0.382075	-0.0107961
-0.332082	0.00406337
-0.392143	-0.0152084
-0.342089	0.00549523
-0.402085	-0.0147629
-0.352115	0.000287516
-0.412069	-0.00803847
-0.362072	0.00329972
-0.422072	-0.0144023
-0.372091	0.00117845
-0.432101	-0.0122916
-0.382098	0.00116784
-0.44212	-0.0116977
-0.392078	0.00607858
-0.452077	-0.010531
-0.402081	0.00316184
-0.462065	-0.00830362
-0.41208	0.00583463
-0.472075	-0.0128644
-0.422083	0.00793469
-0.482139	-0.0137023
-0.432052	0.00722407
-0.492055	-0.0163008
-0.44207	0.00384064
-0.502062	-0.0147311
-0.452062	0.00695891
-0.512072	-0.0118886
-0.462084	0.005771
-0.52206	-0.0156008
-0.472052	0.00712861
-0.532052	-0.0154417
-0.482048	0.00509219
-0.542085	-0.013575
-0.492066	0.00286486
-0.552065	-0.0168099
-0.502104	0.00650283
-0.561996	-0.0169266
-0.512072	0.00758468
-0.571999	-0.0143492
-0.522022	0.0137151
-0.582078	-0.0195357
-0.532063	0.0126227
-0.592016	-0.0201085
-0.542066	0.0051134
-0.602023	-0.0216888
-0.55205	0.0149561
-0.612007	-0.0214237
-0.561981	0.0116681
-0.622006	-0.0222828
-0.57201	0.00754226
-0.632013	-0.0246692
-0.581994	0.0120818
-0.642108	-0.0289966
-0.592036	0.0148394
-0.651996	-0.0276708
-0.60205	0.0139485
-0.662015	-0.0299194
-0.612045	0.0141288
-0.672018	-0.03273
-0.622041	0.0185304
-0.68199	-0.0307148
-0.632017	0.0100029
-0.691993	-0.0335255
-0.641982	0.0099605
-0.702	-0.0342361
-0.651985	0.0127924
-0.712106	-0.0354134
-0.662022	0.0149455
-0.722121	-0.0310436
-0.672033	0.0123363
-0.732086	-0.0352968
-0.682044	0.0159955
-0.742142	-0.0359862
-0.691974	0.0157197
-0.75208	-0.0361135
-0.702069	0.015094
-0.762076	-0.0339498
-0.712137	0.0115515
-0.77209	-0.0410984
-0.722087	0.00980141
-0.782132	-0.036071
-0.732051	0.0190289
-0.792108	-0.0412045
-0.742081	0.00936655
-0.802134	-0.0404196
-0.752092	0.0105969
-0.812091	-0.0400378
-0.762114	0.00772256
-0.82209	-0.0381393
-0.772102	0.0139061
-0.832097	-0.0413742
-0.782086	0.0091226
-0.842154	-0.0368983
-0.792096	0.0106181
-0.852073	-0.0390196
-0.802096	0.0089529
-0.862099	-0.0359438
-0.812049	0.0187001
-0.872086	-0.0293254
-0.822079	0.0179047
-0.882105	-0.0360604
-0.832093	0.011106
-0.892089	-0.0368559
-0.842073	0.0120606
-0.902034	-0.0287845
-0.852107	0.0173743
-0.91203	-0.0301951
-0.862068	0.0187426
-0.922071	-0.0354028
-0.872052	0.0128242
-0.932047	-0.032921
-0.882055	0.0118378
-0.942062	-0.0332816
-0.892073	0.0139909
-0.952046	-0.0365271
-0.902042	0.0120181
-0.962037	-0.040303
-0.91206	0.0127818
-0.972086	-0.0356574
-0.92206	0.00998172
-0.982066	-0.0376302
-0.932032	0.00936655
-0.992043	-0.0418515
-0.94205	0.0149879
-1.00202	-0.0366014
-0.952053	0.0119651
-1.01209	-0.0323058
-0.962068	0.0130894
-1.02204	-0.0374923
-0.972037	0.0101514
-1.03197	-0.0410454
-0.982059	0.0143409
-1.04203	-0.0380226
-0.992027	0.00948322
-1.05206	-0.036071
-1.00206	0.0105226
-1.06201	-0.0373544
-1.01205	0.0123681
-1.07205	-0.0386272
-1.02202	0.0156773
-1.082	-0.0408545
-1.03207	0.0127818
-1.09208	-0.0432197
-1.04205	0.0136091
-1.10207	-0.0397514
-1.05203	0.0150622
-1.11204	-0.0420106
-1.06203	0.0129727
-1.12209	-0.0480668
-1.07204	0.0111166