Folder: ElectrochemLabUtils/VFSWV_data_prep/Example_data/CoPc(OMe)8_VFSWV_txt_data (part 2)

File: CoPc(OMe)8_CNT_VFSWV_scans_07_6_C02.txt
Ewe/V	<I>/mA
-0.122061	-1.04744
-0.0720987	2.16851
-0.13214	-2.48388
-0.0820941	1.94972
-0.142044	-2.53218
-0.0921048	1.92624
-0.152096	-2.54001
-0.102081	1.91116
-0.162099	-2.55528
-0.112096	1.89627
-0.172102	-2.56444
-0.122118	1.89837
-0.182147	-2.58506
-0.13206	1.90619
-0.192051	-2.60167
-0.142128	1.91154
-0.202047	-2.63184
-0.15205	1.91326
-0.212084	-2.66143
-0.162088	1.91879
-0.222068	-2.70267
-0.172049	1.93999
-0.232109	-2.73245
-0.182056	1.95927
-0.242051	-2.78724
-0.192005	1.96404
-0.25205	-2.82924
-0.202085	1.98695
-0.262054	-2.85234
-0.212095	2.01692
-0.272053	-2.89434
-0.222064	2.03182
-0.28217	-2.93272
-0.232021	2.05664
-0.292162	-2.96708
-0.242021	2.06637
-0.302169	-2.99877
-0.252035	2.0889
-0.312172	-3.02626
-0.262073	2.0889
-0.322163	-3.05376
-0.272072	2.10398
-0.332143	-3.08087
-0.282113	2.09997
-0.342127	-3.10912
-0.292131	2.11467
-0.352119	-3.12554
-0.302142	2.10837
-0.362156	-3.16277
-0.312134	2.12097
-0.372098	-3.18415
-0.322121	2.13567
-0.382147	-3.20649
-0.332121	2.15076
-0.39215	-3.24524
-0.342097	2.16507
-0.402111	-3.28724
-0.352119	2.17424
-0.412103	-3.3407
-0.362095	2.18665
-0.42211	-3.38996
-0.372095	2.20994
-0.432098	-3.44666
-0.382052	2.24144
-0.442036	-3.51176
-0.392112	2.26931
-0.452069	-3.57743
-0.402073	2.30005
-0.462068	-3.64616
-0.412095	2.32411
-0.47211	-3.73169
-0.42214	2.37088
-0.482117	-3.82123
-0.432078	2.41479
-0.492108	-3.92814
-0.442093	2.46176
-0.502096	-4.06197
-0.452115	2.53087
-0.512095	-4.20344
-0.46213	2.59215
-0.522098	-4.37851
-0.472094	2.68436
-0.532086	-4.57992
-0.48209	2.79223
-0.542108	-4.81246
-0.492112	2.91059
-0.552111	-5.07573
-0.502027	3.02953
-0.562053	-5.35313
-0.512011	3.15153
-0.572052	-5.65897
-0.52203	3.27028
-0.582052	-5.96253
-0.532055	3.37872
-0.592165	-6.28994
-0.542089	3.46043
-0.602111	-6.59159
-0.552077	3.5093
-0.612064	-6.894
-0.562068	3.53393
-0.622041	-7.18189
-0.572037	3.54462
-0.632082	-7.42378
-0.582094	3.51751
-0.642043	-7.66319
-0.592036	3.49021
-0.652061	-7.85907
-0.602058	3.44458
-0.662106	-8.03318
-0.612106	3.39762
-0.672087	-8.14983
-0.622094	3.34588
-0.682006	-8.24853
-0.632032	3.30388
-0.692001	-8.29263
-0.642039	3.2718
-0.702077	-8.28901
-0.65205	3.23839
-0.712122	-8.24128
-0.662049	3.23591
-0.722098	-8.14811
-0.67206	3.23209
-0.732101	-8.01581
-0.681987	3.21338
-0.742127	-7.85506
-0.692032	3.2025
-0.752092	-7.6609
-0.70213	3.17997
-0.762133	-7.46311
-0.712129	3.16241
-0.772113	-7.24757
-0.72209	3.13702
-0.782105	-7.03584
-0.732109	3.10762
-0.792116	-6.83233
-0.742077	3.05588
-0.802065	-6.64886
-0.752088	3.00051
-0.812102	-6.48067
-0.762114	2.94171
-0.822151	-6.34302
-0.772102	2.90582
-0.832097	-6.21224
-0.782124	2.84645
-0.842176	-6.12003
-0.792096	2.80712
-0.852164	-6.02896
-0.802107	2.76512
-0.862118	-5.95012
-0.812099	2.72827
-0.872117	-5.88921
-0.822094	2.69276
-0.882124	-5.8432
-0.83212	2.66718
-0.892146	-5.8159
-0.842138	2.64866
-0.90208	-5.79987
-0.852099	2.6248
-0.912121	-5.77963
-0.862137	2.6015
-0.922079	-5.776
-0.872086	2.58279
-0.93204	-5.77467
-0.882063	2.57268
-0.942066	-5.78975
-0.892096	2.55435
-0.952042	-5.78918
-0.902107	2.53984
-0.962106	-5.81304
-0.912118	2.53335
-0.972086	-5.8201
-0.922082	2.52857
-0.982066	-5.83289
-0.932059	2.52056
-0.992054	-5.85638
-0.942031	2.51846
-1.00213	-5.8621
-0.952053	2.51464
-1.01208	-5.86936
-0.962064	2.53144
-1.02206	-5.87757
-0.97204	2.52781
-1.03205	-5.89112
-0.982051	2.55168
-1.0421	-5.88043
-0.992069	2.5469
-1.05213	-5.88234
-1.00211	2.55836
-1.06206	-5.87089
-1.01212	2.55893
-1.07206	-5.87337
-1.02209	2.56599
-1.08207	-5.87528
-1.0321	2.56733
-1.09202	-5.87852
-1.0421	2.55989
-1.1021	-5.88673
-1.05209	2.56542
-1.11206	-5.89341
-1.06208	2.56008
-1.12214	-5.91671
-1.07205	2.5574

File: CoPc(OMe)8_CNT_VFSWV_scans_08_7_C02.txt
Ewe/V	<I>/mA
-0.122122	-0.824069
-0.0720949	1.76034
-0.13206	-1.97662
-0.0820521	1.59672
-0.142109	-2.01346
-0.0921163	1.57076
-0.152073	-2.02721
-0.102077	1.56599
-0.162054	-2.03256
-0.112077	1.55377
-0.172053	-2.05108
-0.122106	1.54995
-0.182071	-2.07379
-0.132064	1.55339
-0.192051	-2.0883
-0.14207	1.56102
-0.202035	-2.11809
-0.152089	1.57038
-0.212073	-2.14825
-0.162054	1.57534
-0.222026	-2.17574
-0.172095	1.59023
-0.232063	-2.21221
-0.182102	1.61429
-0.242089	-2.24294
-0.19204	1.62288
-0.252077	-2.28934
-0.20202	1.64407
-0.262073	-2.33153
-0.212034	1.66507
-0.272053	-2.35845
-0.222064	1.68588
-0.282163	-2.40484
-0.232044	1.70039
-0.292112	-2.43329
-0.242032	1.72311
-0.302115	-2.46631
-0.25202	1.73208
-0.312134	-2.49113
-0.262053	1.74545
-0.322098	-2.52645
-0.272037	1.76015
-0.33214	-2.53943
-0.282151	1.76874
-0.342074	-2.5654
-0.292116	1.7632
-0.352085	-2.58869
-0.302108	1.77847
-0.362111	-2.6158
-0.312069	1.79088
-0.372156	-2.6389
-0.322167	1.80062
-0.382101	-2.67269
-0.33209	1.80635
-0.392097	-2.71049
-0.342097	1.82009
-0.402111	-2.74638
-0.352085	1.84071
-0.412111	-2.78991
-0.362103	1.85847
-0.422129	-2.83573
-0.372156	1.88233
-0.432143	-2.90274
-0.382132	1.91097
-0.442078	-2.96154
-0.392085	1.93731
-0.452127	-3.02416
-0.40213	1.96996
-0.462107	-3.09423
-0.412069	2.00929
-0.472102	-3.17594
-0.422148	2.04594
-0.482101	-3.26815
-0.432086	2.09291
-0.492104	-3.37526
-0.442043	2.15534
-0.502084	-3.49515
-0.452085	2.21872
-0.512049	-3.63814
-0.462114	2.29528
-0.522114	-3.82791
-0.472136	2.38539
-0.532017	-4.03009
-0.482098	2.50452
-0.542074	-4.27007
-0.492059	2.63568
-0.5521	-4.53124
-0.502096	2.7781
-0.562057	-4.8073
-0.512072	2.92052
-0.57206	-5.13128
-0.522052	3.06581
-0.582055	-5.44477
-0.532078	3.21281
-0.592108	-5.76207
-0.542089	3.32927
-0.602065	-6.07478
-0.552061	3.40697
-0.612053	-6.37815
-0.562095	3.47246
-0.622071	-6.65726
-0.572045	3.49995
-0.632082	-6.91156
-0.582074	3.51637
-0.642043	-7.13092
-0.592077	3.49995
-0.652046	-7.32279
-0.602061	3.47685
-0.662	-7.48106
-0.612061	3.45222
-0.672033	-7.59274
-0.622045	3.41957
-0.681994	-7.66605
-0.632036	3.39208
-0.692043	-7.69431
-0.642058	3.36115
-0.702054	-7.67789
-0.652027	3.33671
-0.71211	-7.64543
-0.662034	3.32373
-0.722083	-7.53146
-0.672052	3.29204
-0.732101	-7.38789
-0.682052	3.27199
-0.742062	-7.2153
-0.692085	3.24603
-0.752142	-7.01332
-0.702103	3.20117
-0.762057	-6.81133
-0.712103	3.16508
-0.772163	-6.59273
-0.722117	3.11525
-0.782044	-6.38445
-0.732086	3.05283
-0.792035	-6.17711
-0.742089	2.98371
-0.802126	-6.00224
-0.752077	2.93102
-0.812102	-5.8453
-0.762106	2.85313
-0.822121	-5.69505
-0.772083	2.79242
-0.832105	-5.5744
-0.782116	2.71433
-0.84207	-5.47436
-0.792081	2.66126
-0.852107	-5.39303
-0.802111	2.61888
-0.862114	-5.32793
-0.812072	2.5721
-0.872121	-5.25882
-0.822079	2.53908
-0.882093	-5.22999
-0.832078	2.51349
-0.892073	-5.19543
-0.842085	2.48505
-0.902096	-5.17138
-0.852099	2.46538
-0.912079	-5.16355
-0.862114	2.44247
-0.922083	-5.15152
-0.87214	2.42491
-0.932089	-5.15706
-0.88204	2.41345
-0.942115	-5.16431
-0.892096	2.40162
-0.95213	-5.16489
-0.902126	2.39398
-0.962072	-5.18455
-0.912095	2.37813
-0.972098	-5.19696
-0.922086	2.36668
-0.982135	-5.20822
-0.93207	2.36763
-0.992115	-5.20937
-0.942085	2.3726
-1.0021	-5.23381
-0.952073	2.38443
-1.01209	-5.23915
-0.962083	2.38424
-1.02206	-5.24011
-0.972056	2.39723
-1.03207	-5.2466
-0.982063	2.40124
-1.04204	-5.24583
-0.992077	2.40429
-1.05203	-5.23533
-1.00209	2.41651
-1.06202	-5.24507
-1.01212	2.4188
-1.072	-5.24297
-1.02203	2.41708
-1.08202	-5.24335
-1.03213	2.42357
-1.09204	-5.24755
-1.04208	2.42014
-1.10204	-5.2466
-1.05213	2.42434
-1.11206	-5.25882
-1.06206	2.41002
-1.12215	-5.28917
-1.07204	2.41899

File: CoPc(OMe)8_CNT_VFSWV_scans_09_8_C02.txt
Ewe/V	<I>/mA
-0.122072	-0.651101
-0.0721483	1.40982
-0.132117	-1.59174
-0.0821056	1.3073
-0.142101	-1.61255
-0.0921315	1.28668
-0.152093	-1.61732
-0.102089	1.27771
-0.162103	-1.63469
-0.112092	1.27331
-0.172106	-1.64996
-0.12208	1.26835
-0.18209	-1.66333
-0.132071	1.2779
-0.192009	-1.68013
-0.142067	1.27694
-0.202062	-1.70819
-0.152093	1.28
-0.212092	-1.73931
-0.162157	1.28744
-0.222114	-1.77349
-0.172076	1.29737
-0.232094	-1.8004
-0.182098	1.30901
-0.24204	-1.83439
-0.192128	1.33192
-0.252062	-1.87486
-0.202115	1.35388
-0.262065	-1.90617
-0.212038	1.37603
-0.272091	-1.94206
-0.22206	1.4018
-0.282174	-1.97853
-0.232067	1.4207
-0.292173	-2.00697
-0.242055	1.42624
-0.302161	-2.03657
-0.252062	1.4501
-0.312137	-2.06215
-0.262099	1.45774
-0.322171	-2.08105
-0.272034	1.46709
-0.332121	-2.10358
-0.282121	1.46346
-0.342127	-2.12515
-0.29217	1.47778
-0.352146	-2.14481
-0.302127	1.49382
-0.362099	-2.1641
-0.312134	1.5068
-0.372125	-2.20266
-0.322121	1.5131
-0.382151	-2.22786
-0.332143	1.5152
-0.392104	-2.26318
-0.342139	1.53735
-0.40213	-2.3048
-0.352108	1.54804
-0.412179	-2.34718
-0.362122	1.56522
-0.422117	-2.39128
-0.372068	1.58126
-0.432094	-2.44741
-0.382082	1.61925
-0.442089	-2.50297
-0.392112	1.65533
-0.452085	-2.56292
-0.402119	1.68149
-0.462137	-2.63775
-0.412088	1.72387
-0.472091	-2.71317
-0.422091	1.75537
-0.482101	-2.80729
-0.432082	1.80673
-0.492116	-2.90561
-0.442051	1.8409
-0.502084	-3.02951
-0.45213	1.927
-0.512107	-3.18301
-0.462122	1.99363
-0.522102	-3.35636
-0.472079	2.10379
-0.53209	-3.5593
-0.482105	2.22846
-0.542104	-3.80176
-0.492081	2.36897
-0.552054	-4.06465
-0.502073	2.51578
-0.562087	-4.35694
-0.512084	2.6899
-0.572117	-4.67443
-0.522094	2.86134
-0.582055	-4.98314
-0.532113	3.01369
-0.592093	-5.31609
-0.542051	3.15439
-0.602119	-5.62652
-0.552073	3.28154
-0.612057	-5.92071
-0.562065	3.37547
-0.622102	-6.20575
-0.572049	3.42721
-0.632113	-6.46673
-0.58209	3.46329
-0.642062	-6.67578
-0.592066	3.47742
-0.652069	-6.85467
-0.602092	3.47456
-0.662076	-7.00301
-0.61208	3.45394
-0.672087	-7.12462
-0.622106	3.43866
-0.682059	-7.17483
-0.632071	3.41824
-0.692043	-7.19469
-0.642119	3.38559
-0.702061	-7.16643
-0.652073	3.36153
-0.712148	-7.10954
-0.662099	3.33137
-0.722136	-6.98964
-0.672094	3.31323
-0.732124	-6.83538
-0.682048	3.2676
-0.742123	-6.67005
-0.692104	3.22598
-0.752172	-6.46501
-0.70213	3.16699
-0.762156	-6.24508
-0.712148	3.10743
-0.772117	-6.03049
-0.722113	3.05149
-0.782093	-5.81151
-0.732135	2.96042
-0.792165	-5.62308
-0.742138	2.87394
-0.802119	-5.43522
-0.752138	2.78955
-0.812148	-5.27161
-0.762141	2.70269
-0.822167	-5.14293
-0.772148	2.63854
-0.832212	-5.02094
-0.782139	2.57229
-0.842142	-4.92376
-0.792112	2.50967
-0.852099	-4.84014
-0.80208	2.4566
-0.862125	-4.77141
-0.812171	2.40964
-0.872144	-4.71433
-0.822151	2.37279
-0.882082	-4.67653
-0.832139	2.33155
-0.892146	-4.65152
-0.842138	2.31074
-0.902118	-4.64044
-0.852122	2.2842
-0.912129	-4.61868
-0.862167	2.26416
-0.922105	-4.62326
-0.872155	2.25328
-0.93207	-4.6141
-0.882112	2.24297
-0.942112	-4.62689
-0.892112	2.23094
-0.952088	-4.63033
-0.902134	2.22349
-0.962057	-4.64445
-0.912079	2.21414
-0.972128	-4.64999
-0.922075	2.20688
-0.982082	-4.67443
-0.932124	2.20612
-0.992081	-4.67385
-0.942081	2.2128
-1.00209	-4.69065
-0.952099	2.21357
-1.01209	-4.69657
-0.962098	2.22789
-1.02209	-4.70459
-0.972098	2.23686
-1.03211	-4.70325
-0.982078	2.2359
-1.04208	-4.70364
-0.992085	2.23438
-1.05208	-4.70555
-1.00208	2.24908
-1.06205	-4.70326
-1.01209	2.24946
-1.07205	-4.70115
-1.02208	2.25786
-1.08212	-4.70497
-1.03206	2.25232
-1.0921	-4.7128
-1.04208	2.24106
-1.1021	-4.72273
-1.05208	2.25079
-1.112	-4.72292
-1.06202	2.25404
-1.12217	-4.75289
-1.07207	2.24736

File: CoPc(OMe)8_CNT_VFSWV_scans_10_9_C02.txt
Ewe/V	<I>/mA
-0.122091	-0.52128
-0.0721102	1.29177
-0.132102	-1.47127
-0.0820827	1.19937
-0.142093	-1.48985
-0.0920972	1.17417
-0.152073	-1.49507
-0.102096	1.16691
-0.16213	-1.51098
-0.112084	1.15902
-0.172087	-1.51492
-0.122125	1.15889
-0.182083	-1.53083
-0.132094	1.16475
-0.192074	-1.55247
-0.142093	1.16767
-0.202035	-1.57742
-0.152077	1.17353
-0.21208	-1.59524
-0.162076	1.18613
-0.222068	-1.63011
-0.172038	1.19618
-0.232086	-1.66256
-0.182044	1.21388
-0.242055	-1.69197
-0.19204	1.23335
-0.252047	-1.72926
-0.202089	1.25155
-0.262073	-1.76642
-0.212092	1.26453
-0.272095	-1.79391
-0.222072	1.29279
-0.282178	-1.83337
-0.232052	1.30793
-0.292181	-1.85424
-0.242044	1.33224
-0.302153	-1.88313
-0.252024	1.34204
-0.312187	-1.90948
-0.262046	1.35235
-0.32216	-1.92692
-0.272034	1.36941
-0.332121	-1.94894
-0.282132	1.36648
-0.342162	-1.9819
-0.292189	1.3689
-0.352115	-2.00596
-0.302169	1.38786
-0.362183	-2.01919
-0.31216	1.40314
-0.372114	-2.04643
-0.322117	1.40314
-0.382143	-2.07341
-0.332094	1.41637
-0.392104	-2.11363
-0.34212	1.43126
-0.402142	-2.1424
-0.352119	1.44908
-0.412141	-2.18503
-0.362114	1.46716
-0.422083	-2.22971
-0.37211	1.48841
-0.43212	-2.28596
-0.38214	1.51641
-0.442143	-2.34566
-0.392101	1.55039
-0.452085	-2.40382
-0.402134	1.58527
-0.462133	-2.47026
-0.412107	1.61798
-0.472144	-2.5507
-0.42211	1.65807
-0.482082	-2.63177
-0.432052	1.71038
-0.492085	-2.73678
-0.442093	1.76409
-0.502123	-2.86112
-0.452081	1.83664
-0.512164	-3.00711
-0.462049	1.92051
-0.52214	-3.1853
-0.472098	2.03328
-0.532086	-3.38321
-0.482094	2.15636
-0.542081	-3.62287
-0.492097	2.29598
-0.552077	-3.8815
-0.502096	2.46245
-0.562084	-4.18021
-0.512042	2.63937
-0.572098	-4.50031
-0.52206	2.8243
-0.582116	-4.81545
-0.532075	3.00325
-0.592108	-5.14382
-0.542097	3.1598
-0.602039	-5.45781
-0.552084	3.29217
-0.612091	-5.75475
-0.562042	3.39781
-0.622041	-6.02559
-0.571991	3.47341
-0.632051	-6.27722
-0.582036	3.52597
-0.642074	-6.48849
-0.592066	3.5569
-0.652016	-6.66757
-0.602077	3.55996
-0.662045	-6.80707
-0.612084	3.55588
-0.672083	-6.90507
-0.622037	3.53577
-0.68204	-6.96183
-0.632063	3.51872
-0.692028	-6.97456
-0.642078	3.49466
-0.702065	-6.93816
-0.652054	3.46934
-0.712122	-6.87707
-0.66208	3.44426
-0.722155	-6.75247
-0.672045	3.39933
-0.732158	-6.60457
-0.682044	3.35619
-0.742158	-6.41557
-0.692062	3.30922
-0.752126	-6.22503
-0.702077	3.22268
-0.762122	-6.00625
-0.712122	3.16018
-0.77214	-5.78618
-0.722144	3.08229
-0.78212	-5.5758
-0.73209	2.98543
-0.792112	-5.38068
-0.742142	2.89583
-0.802122	-5.20708
-0.752073	2.80139
-0.812144	-5.05689
-0.762106	2.71828
-0.822113	-4.9062
-0.772094	2.62855
-0.832177	-4.8017
-0.782128	2.56008
-0.842115	-4.69301
-0.792142	2.49478
-0.852103	-4.60888
-0.802111	2.44005
-0.86216	-4.5511
-0.812083	2.38507
-0.872102	-4.49586
-0.822117	2.34778
-0.882112	-4.46519
-0.832112	2.3208
-0.892112	-4.42675
-0.842104	2.29369
-0.902126	-4.41695
-0.852118	2.27103
-0.912114	-4.4018
-0.86211	2.2569
-0.922063	-4.40358
-0.872079	2.23603
-0.932112	-4.40129
-0.882078	2.22521
-0.942085	-4.40358
-0.892092	2.21261
-0.952084	-4.41313
-0.902038	2.2037
-0.962083	-4.42102
-0.912106	2.19976
-0.972094	-4.42891
-0.922044	2.19581
-0.982047	-4.44342
-0.932108	2.19568
-0.992085	-4.44953
-0.942085	2.20408
-1.00208	-4.46035
-0.952073	2.20879
-1.01209	-4.4676
-0.962102	2.21236
-1.02209	-4.47066
-0.972048	2.2275
-1.03206	-4.47664
-0.982086	2.23349
-1.0421	-4.46837
-0.99205	2.23603
-1.05207	-4.46608
-1.00205	2.24303
-1.06205	-4.47193
-1.01211	2.24379
-1.07208	-4.47588
-1.02208	2.24341
-1.08204	-4.47689
-1.03204	2.24379
-1.09205	-4.47804
-1.04206	2.23565
-1.10208	-4.48937
-1.0521	2.23858
-1.11206	-4.504
-1.06209	2.23183
-1.12212	-4.5278
-1.07209	2.23654

File: CoPc(OMe)8_CNT_VFSWV_scans_11_10_C02.txt
Ewe/V	<I>/mA
-0.122156	-0.432313
-0.072175	1.03976
-0.132113	-1.18337
-0.0821438	0.970779
-0.142082	-1.19877
-0.0921277	0.956778
-0.152066	-1.21544
-0.102108	0.941632
-0.162103	-1.21824
-0.112035	0.942778
-0.172099	-1.23403
-0.122129	0.940869
-0.182075	-1.24994
-0.132075	0.93145
-0.192116	-1.2675
-0.142132	0.945196
-0.202027	-1.28863
-0.152108	0.951687
-0.212111	-1.30925
-0.162115	0.958051
-0.222076	-1.33928
-0.172095	0.967597
-0.23209	-1.36563
-0.182102	0.982488
-0.242101	-1.39605
-0.192089	1.00005
-0.252073	-1.42838
-0.202066	1.02602
-0.262065	-1.46172
-0.21208	1.0334
-0.272083	-1.49621
-0.222072	1.04867
-0.282132	-1.52727
-0.232071	1.07133
-0.292127	-1.54573
-0.242059	1.08584
-0.302157	-1.57373
-0.252066	1.10722
-0.312095	-1.59244
-0.262053	1.10824
-0.322179	-1.61624
-0.272022	1.12262
-0.332113	-1.64207
-0.282166	1.13026
-0.342139	-1.65404
-0.292185	1.14451
-0.352157	-1.68
-0.302165	1.14795
-0.362179	-1.69897
-0.312145	1.15826
-0.372117	-1.73028
-0.322156	1.16767
-0.382166	-1.75459
-0.332166	1.18142
-0.392116	-1.78475
-0.342147	1.18855
-0.402134	-1.82153
-0.352134	1.2
-0.412133	-1.8559
-0.362126	1.21922
-0.422156	-1.90006
-0.372121	1.24799
-0.432094	-1.94945
-0.382094	1.2667
-0.442127	-2.00506
-0.392139	1.29546
-0.452111	-2.05852
-0.4021	1.32448
-0.462091	-2.12127
-0.412126	1.36737
-0.472098	-2.19942
-0.422083	1.40963
-0.482166	-2.2824
-0.432071	1.4529
-0.492085	-2.38371
-0.442127	1.50165
-0.502104	-2.50081
-0.452092	1.57483
-0.512057	-2.6375
-0.462103	1.65323
-0.522171	-2.80334
-0.472056	1.76384
-0.532109	-3.00202
-0.482101	1.89289
-0.542089	-3.23735
-0.492078	2.03964
-0.552062	-3.50501
-0.502134	2.20345
-0.562107	-3.79622
-0.512099	2.39105
-0.572075	-4.11416
-0.52211	2.58999
-0.582109	-4.43668
-0.532082	2.78115
-0.592089	-4.76034
-0.542081	2.96838
-0.602065	-5.0756
-0.552023	3.12353
-0.612057	-5.37636
-0.562053	3.25055
-0.622079	-5.65331
-0.572064	3.35046
-0.632097	-5.89526
-0.58209	3.41741
-0.642074	-6.11418
-0.592074	3.46908
-0.652019	-6.27251
-0.602077	3.48092
-0.662061	-6.42167
-0.61208	3.48856
-0.672087	-6.51446
-0.622045	3.4771
-0.68204	-6.56193
-0.632071	3.46208
-0.692054	-6.56931
-0.642047	3.43981
-0.701989	-6.51662
-0.652019	3.41219
-0.712095	-6.447
-0.662068	3.38648
-0.722113	-6.31527
-0.672067	3.3371
-0.732116	-6.15961
-0.682021	3.27702
-0.742119	-5.97913
-0.692058	3.2074
-0.752122	-5.77091
-0.702199	3.1206
-0.762171	-5.5506
-0.71211	3.03698
-0.772125	-5.32901
-0.722155	2.93185
-0.782109	-5.12486
-0.732147	2.83868
-0.792089	-4.92274
-0.742138	2.7305
-0.802099	-4.75881
-0.752084	2.63122
-0.812083	-4.5973
-0.762156	2.53538
-0.822155	-4.45844
-0.772113	2.45444
-0.832154	-4.33931
-0.782082	2.37845
-0.8421	-4.238
-0.792104	2.30298
-0.852138	-4.16532
-0.802122	2.25321
-0.862133	-4.09952
-0.812133	2.20281
-0.872136	-4.05307
-0.822117	2.15979
-0.882143	-4.01756
-0.832116	2.12899
-0.892138	-3.98803
-0.842135	2.09463
-0.902115	-3.97734
-0.852122	2.07515
-0.912099	-3.97008
-0.862064	2.05517
-0.92209	-3.96703
-0.87214	2.03595
-0.932086	-3.9739
-0.882101	2.0259
-0.942077	-3.96664
-0.892131	2.01241
-0.952099	-3.98294
-0.902069	2.00286
-0.962083	-3.98408
-0.912118	2.00884
-0.972079	-4.00483
-0.922125	1.99701
-0.982093	-4.01145
-0.932124	2.00362
-0.992081	-4.02736
-0.942134	2.00732
-1.00208	-4.03677
-0.95205	2.01495
-1.01216	-4.03194
-0.962137	2.02208
-1.0221	-4.02914
-0.972033	2.03863
-1.0321	-4.03486
-0.982082	2.04486
-1.04205	-4.04085
-0.992058	2.04741
-1.05209	-4.03257
-1.00209	2.05173
-1.06214	-4.04466
-1.01206	2.04626
-1.07209	-4.04377
-1.02214	2.04435
-1.08209	-4.04848
-1.03207	2.05606
-1.09207	-4.04288
-1.04209	2.04983
-1.1021	-4.05663
-1.05211	2.04168
-1.11206	-4.06439
-1.06208	2.04155
-1.12222	-4.09099
-1.07202	2.05657

File: CoPc(OMe)8_CNT_VFSWV_scans_12_11_C02.txt
Ewe/V	<I>/mA
-0.122095	-0.349075
-0.0720949	0.843884
-0.132083	-0.970692
-0.082117	0.784828
-0.142112	-0.975655
-0.0920629	0.767264
-0.152142	-0.981892
-0.102112	0.77121
-0.16208	-0.991565
-0.112084	0.768282
-0.172156	-1.00111
-0.12211	0.768155
-0.182121	-1.01435
-0.132144	0.763573
-0.192089	-1.03929
-0.14212	0.772228
-0.202073	-1.05062
-0.152096	0.773628
-0.212115	-1.06882
-0.162096	0.786101
-0.222041	-1.09873
-0.17208	0.793865
-0.232098	-1.13271
-0.18206	0.803156
-0.242097	-1.15155
-0.192017	0.823775
-0.252062	-1.17815
-0.202085	0.829502
-0.262061	-1.21875
-0.212095	0.851776
-0.272087	-1.23988
-0.222095	0.855467
-0.282193	-1.2717
-0.232094	0.877485
-0.292158	-1.29397
-0.242063	0.894668
-0.302142	-1.31166
-0.252077	0.910195
-0.312134	-1.33839
-0.262053	0.91885
-0.322133	-1.35519
-0.272087	0.926996
-0.332124	-1.37518
-0.282155	0.936541
-0.342158	-1.39592
-0.292147	0.944814
-0.352165	-1.41921
-0.302142	0.957287
-0.362179	-1.43665
-0.312176	0.962888
-0.372121	-1.45612
-0.322163	0.977906
-0.382178	-1.47776
-0.332155	0.980961
-0.392101	-1.51149
-0.342124	0.991779
-0.402096	-1.54254
-0.352108	1.00387
-0.412107	-1.5708
-0.362153	1.02767
-0.422121	-1.61827
-0.372114	1.03683
-0.432101	-1.66167
-0.382166	1.06662
-0.442082	-1.71437
-0.392154	1.08838
-0.452107	-1.7668
-0.402081	1.12504
-0.462149	-1.82217
-0.412118	1.15304
-0.472079	-1.88963
-0.422098	1.19937
-0.482071	-1.98025
-0.432117	1.23309
-0.492101	-2.07507
-0.442158	1.28566
-0.502043	-2.18478
-0.452027	1.35057
-0.512107	-2.32313
-0.462107	1.42503
-0.522071	-2.48426
-0.472072	1.52634
-0.532059	-2.68103
-0.482098	1.64827
-0.54207	-2.9114
-0.492101	1.79489
-0.552058	-3.16659
-0.5021	1.96188
-0.562114	-3.46009
-0.512099	2.15852
-0.572068	-3.77013
-0.522083	2.36636
-0.582113	-4.08387
-0.532036	2.58171
-0.592077	-4.42395
-0.542062	2.77288
-0.602092	-4.73043
-0.552126	2.9447
-0.61208	-5.02851
-0.562007	3.09845
-0.622079	-5.30826
-0.572045	3.20918
-0.63209	-5.54971
-0.582097	3.30082
-0.642116	-5.76353
-0.592047	3.35453
-0.652054	-5.93752
-0.602077	3.39284
-0.662061	-6.06454
-0.612049	3.40939
-0.672098	-6.14638
-0.622033	3.40455
-0.682059	-6.18952
-0.632017	3.39539
-0.692055	-6.18787
-0.642051	3.36599
-0.702038	-6.12945
-0.652023	3.34079
-0.712232	-6.05499
-0.662087	3.28911
-0.72209	-5.92275
-0.672029	3.24126
-0.732154	-5.75589
-0.682002	3.17635
-0.742169	-5.57211
-0.692077	3.09565
-0.752088	-5.35892
-0.702184	2.9932
-0.762156	-5.13619
-0.71216	2.89392
-0.772102	-4.92045
-0.722129	2.78828
-0.782128	-4.71388
-0.732143	2.6773
-0.792135	-4.51228
-0.742119	2.57191
-0.802119	-4.33638
-0.752088	2.4622
-0.81211	-4.18734
-0.762141	2.35936
-0.822113	-4.05981
-0.772098	2.26798
-0.832101	-3.94679
-0.782112	2.18945
-0.842081	-3.84433
-0.792123	2.12339
-0.852145	-3.77038
-0.802122	2.06268
-0.862091	-3.71349
-0.81216	2.01202
-0.872155	-3.65978
-0.822144	1.97104
-0.882078	-3.63025
-0.832116	1.93744
-0.892123	-3.60989
-0.842127	1.90931
-0.902115	-3.58876
-0.85208	1.88908
-0.912121	-3.58736
-0.862118	1.8738
-0.922079	-3.58189
-0.872136	1.86171
-0.932131	-3.57756
-0.882086	1.83855
-0.942096	-3.60047
-0.892123	1.82327
-0.952099	-3.5992
-0.902054	1.81271
-0.962133	-3.61587
-0.912091	1.82187
-0.972044	-3.6258
-0.922071	1.82098
-0.982059	-3.63114
-0.932066	1.82951
-0.992066	-3.64324
-0.942073	1.83282
-1.00213	-3.64413
-0.952069	1.84058
-1.01206	-3.65762
-0.962121	1.83893
-1.02207	-3.65113
-0.972082	1.85598
-1.03203	-3.64591
-0.982051	1.86324
-1.04206	-3.65545
-0.992131	1.85968
-1.05206	-3.65495
-1.00205	1.86515
-1.06201	-3.65355
-1.01208	1.86006
-1.07205	-3.65953
-1.02204	1.87113
-1.08205	-3.65851
-1.03202	1.86655
-1.09208	-3.67455
-1.04207	1.86528
-1.1021	-3.67709
-1.05206	1.86744
-1.11204	-3.69033
-1.06208	1.85471
-1.12214	-3.71655
-1.07203	1.86808