Folder: ElectrochemLabUtils/VFSWV_data_prep/Example_data/CoPc(OMe)8_VFSWV_txt_data (part 5)

File: CoPc(OMe)8_CNT_VFSWV_scans_25_24_C02.txt
Ewe/V	<I>/mA
-0.122068	-0.0405575
-0.0721445	0.113701
-0.132071	-0.107473
-0.0821132	0.104824
-0.142067	-0.109382
-0.0920857	0.100051
-0.1521	-0.119691
-0.102096	0.0932733
-0.16205	-0.115587
-0.112038	0.0979507
-0.172072	-0.129428
-0.122064	0.0964234
-0.182125	-0.140406
-0.132106	0.0956598
-0.192055	-0.13611
-0.142089	0.090696
-0.202027	-0.141169
-0.152066	0.0938461
-0.212038	-0.152529
-0.162061	0.0983326
-0.222064	-0.157397
-0.172083	0.0968053
-0.232044	-0.167611
-0.182098	0.0925097
-0.24207	-0.170761
-0.192047	0.0990962
-0.252031	-0.182693
-0.202028	0.0965189
-0.262095	-0.191475
-0.212054	0.106065
-0.272034	-0.195866
-0.222057	0.109406
-0.282147	-0.202453
-0.232014	0.112938
-0.292116	-0.212858
-0.242044	0.107306
-0.302115	-0.224981
-0.25205	0.109501
-0.312153	-0.219826
-0.262096	0.114942
-0.32214	-0.227272
-0.272072	0.118569
-0.332098	-0.235672
-0.282166	0.114178
-0.342085	-0.247413
-0.29212	0.119619
-0.352134	-0.251231
-0.302088	0.123247
-0.362099	-0.26345
-0.312111	0.126206
-0.372121	-0.26765
-0.322148	0.12382
-0.382136	-0.278246
-0.332109	0.128879
-0.392093	-0.285978
-0.342112	0.128592
-0.402104	-0.29791
-0.352096	0.136897
-0.412057	-0.300869
-0.362126	0.139856
-0.422125	-0.308124
-0.372087	0.144534
-0.432098	-0.324447
-0.382101	0.143197
-0.442097	-0.334184
-0.392089	0.152839
-0.452077	-0.354039
-0.4021	0.157516
-0.462053	-0.363584
-0.412088	0.163721
-0.472098	-0.392794
-0.422064	0.172407
-0.482078	-0.41179
-0.432098	0.182621
-0.492074	-0.445105
-0.442066	0.198181
-0.502069	-0.495888
-0.452065	0.208681
-0.512061	-0.535407
-0.46208	0.228059
-0.522083	-0.606905
-0.472072	0.258891
-0.532071	-0.692339
-0.48212	0.288388
-0.542058	-0.7919
-0.492123	0.33268
-0.55205	-0.930504
-0.502062	0.407614
-0.562084	-1.0923
-0.512046	0.496102
-0.572075	-1.27615
-0.522041	0.61151
-0.582094	-1.47566
-0.532063	0.758323
-0.592047	-1.71029
-0.542062	0.931005
-0.602039	-1.95132
-0.552046	1.11839
-0.612045	-2.17565
-0.562053	1.31026
-0.622056	-2.39291
-0.572102	1.50069
-0.632032	-2.5821
-0.582063	1.67347
-0.642035	-2.75593
-0.592043	1.81656
-0.652	-2.88155
-0.602058	1.92061
-0.662023	-2.96326
-0.612042	1.9964
-0.672071	-3.0108
-0.622052	2.04375
-0.682044	-3.0024
-0.632082	2.05062
-0.692005	-2.95171
-0.642047	2.0216
-0.702004	-2.85769
-0.652069	1.9797
-0.71216	-2.73989
-0.662007	1.90457
-0.722121	-2.58592
-0.672018	1.81866
-0.732112	-2.42278
-0.682013	1.71051
-0.742074	-2.246
-0.691993	1.58317
-0.752138	-2.07484
-0.702096	1.46041
-0.762103	-1.90159
-0.712106	1.33307
-0.772117	-1.76251
-0.722136	1.20831
-0.782063	-1.6386
-0.732086	1.09576
-0.792066	-1.52492
-0.742081	0.995343
-0.802065	-1.43757
-0.752077	0.911723
-0.812118	-1.36159
-0.762061	0.826288
-0.822098	-1.29983
-0.772052	0.760328
-0.832112	-1.25611
-0.782147	0.707826
-0.842054	-1.21831
-0.792051	0.664298
-0.852099	-1.19272
-0.802111	0.627738
-0.862106	-1.16867
-0.812057	0.601582
-0.872083	-1.16218
-0.822109	0.576
-0.882147	-1.15359
-0.832074	0.55624
-0.892028	-1.14843
-0.84207	0.545167
-0.902096	-1.15196
-0.852088	0.529226
-0.912083	-1.15435
-0.862083	0.529608
-0.922056	-1.15464
-0.87206	0.518821
-0.932086	-1.15731
-0.882089	0.514907
-0.942104	-1.15941
-0.892115	0.517103
-0.952141	-1.1618
-0.902092	0.51023
-0.962057	-1.16456
-0.912076	0.520062
-0.972048	-1.17306
-0.922037	0.513762
-0.98212	-1.17163
-0.932093	0.515194
-0.992066	-1.16628
-0.942062	0.518153
-1.00205	-1.17297
-0.952076	0.528367
-1.01208	-1.16161
-0.962003	0.521017
-1.02201	-1.17373
-0.972025	0.52894
-1.03198	-1.16705
-0.981979	0.523785
-1.04201	-1.16991
-0.992012	0.53104
-1.05205	-1.17287
-1.00205	0.52178
-1.06206	-1.17363
-1.01205	0.52894
-1.07203	-1.17955
-1.02204	0.520539
-1.08204	-1.17411
-1.03203	0.528462
-1.092	-1.189
-1.04201	0.529226
-1.10212	-1.20284
-1.05208	0.524739
-1.11196	-1.21
-1.06204	0.531517
-1.12213	-1.22766
-1.07195	0.530467

File: CoPc(OMe)8_CNT_VFSWV_scans_26_25_C02.txt
Ewe/V	<I>/mA
-0.122122	-0.0355937
-0.0720873	0.10511
-0.132109	-0.0917225
-0.0821285	0.0913642
-0.142101	-0.0973545
-0.0921659	0.0907915
-0.152104	-0.0960181
-0.102096	0.0853504
-0.162084	-0.104514
-0.112073	0.0845867
-0.172053	-0.103941
-0.122114	0.0801957
-0.182113	-0.111387
-0.132075	0.0800048
-0.192036	-0.118832
-0.142112	0.0809594
-0.202073	-0.119596
-0.152073	0.0784775
-0.212065	-0.125037
-0.162096	0.0713182
-0.222064	-0.130287
-0.17206	0.0757092
-0.232021	-0.146897
-0.182098	0.0846822
-0.242101	-0.142506
-0.192055	0.0836322
-0.252066	-0.16112
-0.202092	0.0830594
-0.262061	-0.160452
-0.212065	0.0870686
-0.272076	-0.161502
-0.222076	0.0900278
-0.282151	-0.176488
-0.232098	0.0889778
-0.292215	-0.18317
-0.242044	0.0801957
-0.302192	-0.19033
-0.252035	0.0983326
-0.312099	-0.18823
-0.262076	0.0936552
-0.322152	-0.197012
-0.272095	0.100814
-0.332193	-0.206271
-0.28214	0.102151
-0.342158	-0.204266
-0.292135	0.101864
-0.35215	-0.223071
-0.302173	0.0970916
-0.362118	-0.227844
-0.31216	0.0977598
-0.372129	-0.228131
-0.322121	0.103105
-0.382128	-0.242067
-0.332155	0.106828
-0.392089	-0.243595
-0.342093	0.103392
-0.402077	-0.248749
-0.352115	0.102437
-0.412099	-0.257436
-0.36216	0.106542
-0.422121	-0.263832
-0.372136	0.119333
-0.432132	-0.2729
-0.382166	0.11981
-0.442097	-0.290082
-0.39212	0.11981
-0.4521	-0.303733
-0.402054	0.121624
-0.462107	-0.312992
-0.412133	0.128402
-0.472106	-0.33972
-0.422114	0.135561
-0.482086	-0.358239
-0.432078	0.13957
-0.492104	-0.381817
-0.442093	0.151789
-0.502138	-0.414177
-0.45213	0.166107
-0.512114	-0.451978
-0.462103	0.187299
-0.522056	-0.517938
-0.472071	0.201713
-0.532059	-0.582277
-0.482063	0.23455
-0.542093	-0.675729
-0.492116	0.273401
-0.552073	-0.791614
-0.502062	0.324661
-0.56203	-0.937091
-0.512061	0.395109
-0.572048	-1.10815
-0.522071	0.495339
-0.582052	-1.29849
-0.532002	0.622583
-0.592047	-1.4979
-0.542028	0.776651
-0.602065	-1.71526
-0.552042	0.953151
-0.612042	-1.93605
-0.562065	1.14807
-0.622037	-2.1388
-0.572068	1.31388
-0.632029	-2.32781
-0.582055	1.48322
-0.642009	-2.47681
-0.592055	1.62307
-0.652019	-2.60291
-0.602065	1.73199
-0.662011	-2.67794
-0.612072	1.80701
-0.672056	-2.7061
-0.621995	1.85799
-0.682051	-2.70935
-0.632074	1.86228
-0.692016	-2.6556
-0.642058	1.84023
-0.702019	-2.55576
-0.652016	1.80176
-0.712145	-2.4393
-0.662034	1.72817
-0.722102	-2.28876
-0.672026	1.63844
-0.732154	-2.13183
-0.682029	1.53563
-0.742146	-1.96259
-0.692001	1.41831
-0.752142	-1.8174
-0.702149	1.29804
-0.762106	-1.66591
-0.712141	1.16946
-0.772151	-1.5253
-0.722132	1.06073
-0.78209	-1.41495
-0.732132	0.962219
-0.792093	-1.32274
-0.742073	0.86724
-0.802069	-1.23988
-0.752107	0.779896
-0.812095	-1.17917
-0.762106	0.719567
-0.822117	-1.1345
-0.772048	0.654275
-0.832055	-1.09039
-0.782059	0.605878
-0.842127	-1.05737
-0.792081	0.553568
-0.852084	-1.04066
-0.802096	0.530085
-0.862072	-1.02138
-0.812095	0.497725
-0.87214	-1.02033
-0.822102	0.47997
-0.882101	-0.998088
-0.83207	0.469661
-0.892104	-1.00744
-0.842119	0.454578
-0.902134	-0.998565
-0.852118	0.453242
-0.912137	-1.01164
-0.86206	0.440164
-0.922113	-1.00735
-0.872151	0.43291
-0.932086	-1.00859
-0.882078	0.428805
-0.942134	-1.01594
-0.892123	0.434055
-0.952069	-1.01976
-0.902118	0.436728
-0.962087	-1.01766
-0.912091	0.426228
-0.972132	-1.01995
-0.922082	0.438542
-0.982089	-1.023
-0.932036	0.437301
-0.992047	-1.01393
-0.942062	0.440642
-1.00212	-1.01527
-0.95205	0.44551
-1.01205	-1.01365
-0.962053	0.447037
-1.02204	-1.01928
-0.97204	0.447228
-1.03205	-1.02539
-0.982051	0.43501
-1.04212	-1.02911
-0.992031	0.441215
-1.05202	-1.02443
-1.00208	0.444746
-1.06204	-1.03026
-1.0121	0.451333
-1.07205	-1.0272
-1.02204	0.437969
-1.08202	-1.04171
-1.03204	0.441119
-1.09204	-1.04104
-1.04206	0.438542
-1.10206	-1.04639
-1.05212	0.448469
-1.11203	-1.06357
-1.06204	0.441883
-1.12207	-1.0861
-1.07203	0.441883

File: CoPc(OMe)8_CNT_VFSWV_scans_27_26_C02.txt
Ewe/V	<I>/mA
-0.122114	-0.0321573
-0.0720835	0.074831
-0.132083	-0.0898134
-0.0821323	0.0715473
-0.142093	-0.0953117
-0.0921124	0.0653617
-0.152051	-0.100886
-0.102135	0.0634525
-0.162073	-0.104476
-0.112115	0.0665072
-0.172095	-0.101345
-0.122061	0.0592524
-0.182071	-0.109668
-0.132075	0.0641398
-0.192051	-0.115472
-0.142101	0.0578778
-0.202066	-0.115778
-0.152112	0.0600161
-0.212096	-0.125171
-0.162096	0.0577251
-0.222076	-0.129905
-0.172057	0.0529141
-0.232056	-0.134029
-0.182102	0.0672708
-0.242044	-0.140978
-0.192074	0.0588706
-0.252016	-0.141895
-0.202089	0.0680345
-0.262076	-0.155182
-0.212042	0.0667363
-0.27203	-0.159383
-0.222076	0.0684163
-0.282144	-0.16763
-0.232029	0.0683399
-0.292154	-0.174197
-0.242013	0.0707836
-0.302138	-0.173281
-0.252031	0.0740674
-0.31213	-0.179849
-0.262031	0.0697909
-0.322152	-0.192525
-0.272018	0.0755947
-0.332094	-0.190692
-0.282132	0.0728455
-0.342082	-0.203522
-0.29215	0.0760529
-0.352142	-0.207875
-0.302131	0.0791839
-0.362111	-0.20734
-0.312164	0.0766638
-0.372125	-0.215053
-0.322125	0.082544
-0.382132	-0.222766
-0.332163	0.0841476
-0.392093	-0.225362
-0.342135	0.0859041
-0.4021	-0.235672
-0.35213	0.0843767
-0.412084	-0.239643
-0.362137	0.0887296
-0.42211	-0.254763
-0.372133	0.0847586
-0.432113	-0.25568
-0.382105	0.0976644
-0.44207	-0.269578
-0.39212	0.103697
-0.452107	-0.282408
-0.402134	0.101635
-0.462069	-0.282408
-0.412042	0.103392
-0.47211	-0.313183
-0.422072	0.111792
-0.482124	-0.320514
-0.432056	0.119199
-0.492097	-0.352206
-0.442074	0.12424
-0.502073	-0.378476
-0.452085	0.134778
-0.512065	-0.42231
-0.46208	0.149898
-0.522091	-0.469656
-0.472072	0.168455
-0.532052	-0.527465
-0.482059	0.189685
-0.542066	-0.615515
-0.492047	0.222828
-0.552058	-0.715019
-0.502077	0.270022
-0.562068	-0.846368
-0.512049	0.340125
-0.572026	-1.00429
-0.522064	0.421226
-0.582086	-1.17932
-0.532109	0.535698
-0.592077	-1.36451
-0.54207	0.688582
-0.602046	-1.57551
-0.552054	0.847652
-0.612057	-1.78231
-0.562026	1.02558
-0.622029	-1.97406
-0.572007	1.19741
-0.632021	-2.15016
-0.582059	1.35075
-0.64202	-2.30236
-0.59202	1.49493
-0.652077	-2.41553
-0.602081	1.60405
-0.662064	-2.4935
-0.612099	1.68332
-0.672068	-2.51923
-0.622068	1.73357
-0.682036	-2.51274
-0.632048	1.74266
-0.692039	-2.46379
-0.642039	1.72609
-0.702054	-2.36979
-0.652	1.6792
-0.712145	-2.25707
-0.662064	1.60405
-0.722109	-2.10877
-0.672029	1.52097
-0.732139	-1.96322
-0.682059	1.41062
-0.7421	-1.80682
-0.692047	1.30386
-0.752103	-1.6563
-0.702115	1.18916
-0.762156	-1.51816
-0.712083	1.06743
-0.772087	-1.39406
-0.722102	0.960215
-0.78207	-1.28845
-0.732101	0.861856
-0.79207	-1.20177
-0.742119	0.771821
-0.802138	-1.13282
-0.752111	0.694997
-0.81208	-1.076
-0.762125	0.635279
-0.822106	-1.03278
-0.772163	0.572888
-0.832105	-0.994136
-0.782132	0.527221
-0.842146	-0.973059
-0.792077	0.494308
-0.852096	-0.947018
-0.802096	0.471322
-0.862106	-0.935487
-0.812068	0.435277
-0.872075	-0.925483
-0.822102	0.429931
-0.882086	-0.92113
-0.832139	0.414658
-0.892054	-0.92724
-0.842089	0.407022
-0.902099	-0.924032
-0.852115	0.393811
-0.912129	-0.919756
-0.862114	0.387243
-0.92209	-0.922505
-0.872086	0.390832
-0.932086	-0.928309
-0.882047	0.384341
-0.942058	-0.937167
-0.892112	0.373803
-0.952076	-0.933043
-0.902088	0.377163
-0.96206	-0.931669
-0.912026	0.379836
-0.972086	-0.935182
-0.922109	0.376475
-0.982028	-0.938694
-0.932024	0.381821
-0.992054	-0.932814
-0.942085	0.386403
-1.00211	-0.93984
-0.952095	0.393581
-1.01209	-0.934723
-0.962068	0.389839
-1.02206	-0.936862
-0.972056	0.385258
-1.03202	-0.942818
-0.982055	0.388465
-1.0421	-0.939458
-0.992062	0.389076
-1.05204	-0.945491
-1.00203	0.390069
-1.06207	-0.935945
-1.01206	0.392741
-1.07204	-0.945567
-1.02204	0.387854
-1.08207	-0.9474
-1.03207	0.386327
-1.09202	-0.959924
-1.04205	0.386021
-1.10208	-0.957633
-1.05202	0.387014
-1.11202	-0.973135
-1.06204	0.38877
-1.12211	-0.997572
-1.07201	0.385792

File: CoPc(OMe)8_CNT_VFSWV_scans_28_27_C02.txt
Ewe/V	<I>/mA
-0.122095	-0.0325391
-0.0720377	0.0778093
-0.132044	-0.0751512
-0.0821323	0.0662017
-0.142078	-0.0791986
-0.092059	0.0657435
-0.152104	-0.0779767
-0.102066	0.0623071
-0.162076	-0.0869879
-0.112084	0.0557396
-0.172091	-0.0913407
-0.122129	0.0529141
-0.182048	-0.0907298
-0.132083	0.0616198
-0.192108	-0.0931735
-0.142067	0.0607797
-0.202058	-0.0969154
-0.152028	0.0595579
-0.212076	-0.105697
-0.16205	0.0581833
-0.222037	-0.103865
-0.172072	0.0593288
-0.232044	-0.11173
-0.182044	0.0622307
-0.242055	-0.117992
-0.192005	0.0655144
-0.252073	-0.12372
-0.202081	0.0617725
-0.262019	-0.124789
-0.212076	0.0652853
-0.272049	-0.130211
-0.222064	0.0664308
-0.282163	-0.137771
-0.232033	0.0608561
-0.292127	-0.146859
-0.24207	0.0612379
-0.302134	-0.145255
-0.252039	0.07086
-0.312134	-0.160375
-0.262088	0.0672708
-0.32214	-0.15587
-0.27206	0.0655144
-0.332109	-0.166103
-0.282083	0.0695618
-0.342097	-0.165721
-0.292162	0.0730746
-0.352119	-0.172823
-0.302142	0.0702491
-0.362107	-0.178474
-0.312095	0.074831
-0.372144	-0.177939
-0.322114	0.0744492
-0.382082	-0.1897
-0.332098	0.0772747
-0.392089	-0.190234
-0.342116	0.0804057
-0.402108	-0.194434
-0.352134	0.0765874
-0.412107	-0.210548
-0.362137	0.0826967
-0.422045	-0.207493
-0.372095	0.0857513
-0.432124	-0.221468
-0.382075	0.0852168
-0.442143	-0.234374
-0.392108	0.0855222
-0.452081	-0.240254
-0.402073	0.0914787
-0.462111	-0.247661
-0.41208	0.089035
-0.472041	-0.261025
-0.422098	0.0968243
-0.482044	-0.273931
-0.432067	0.104919
-0.492093	-0.297223
-0.442074	0.11057
-0.502119	-0.321965
-0.452069	0.112785
-0.512137	-0.354726
-0.462095	0.123323
-0.522045	-0.398942
-0.472052	0.139284
-0.532052	-0.448503
-0.482056	0.163262
-0.542055	-0.524487
-0.492085	0.191671
-0.5521	-0.619409
-0.502073	0.234512
-0.562049	-0.720823
-0.512042	0.281935
-0.572087	-0.870576
-0.522041	0.354559
-0.58209	-1.02392
-0.531998	0.460707
-0.592028	-1.20116
-0.542036	0.583503
-0.602016	-1.39284
-0.552077	0.723252
-0.612053	-1.58246
-0.562065	0.888202
-0.622014	-1.76329
-0.572056	1.05269
-0.632013	-1.93198
-0.582059	1.20688
-0.642013	-2.07524
-0.592043	1.34174
-0.651966	-2.17131
-0.602054	1.44437
-0.662	-2.2405
-0.612015	1.51837
-0.672087	-2.27601
-0.622018	1.57603
-0.682017	-2.26074
-0.632059	1.58069
-0.692039	-2.20499
-0.642058	1.56121
-0.702035	-2.12824
-0.652035	1.51998
-0.712145	-2.01408
-0.661973	1.46041
-0.722083	-1.87585
-0.672045	1.37099
-0.732093	-1.72671
-0.68199	1.27492
-0.7421	-1.5891
-0.691963	1.16724
-0.752126	-1.44844
-0.702126	1.05949
-0.762118	-1.32106
-0.712122	0.949753
-0.772094	-1.22064
-0.722132	0.843833
-0.782105	-1.12113
-0.732078	0.755173
-0.792047	-1.05225
-0.742142	0.6756
-0.80205	-0.984361
-0.752069	0.607405
-0.812049	-0.934952
-0.762064	0.553644
-0.822064	-0.907843
-0.772094	0.498279
-0.832116	-0.869507
-0.78209	0.455285
-0.842077	-0.846063
-0.792066	0.431001
-0.852115	-0.836593
-0.802103	0.410229
-0.862106	-0.825291
-0.812129	0.385868
-0.872113	-0.813836
-0.822113	0.372123
-0.88204	-0.808491
-0.832059	0.358377
-0.892081	-0.806047
-0.842073	0.347686
-0.902096	-0.812538
-0.852107	0.342264
-0.912095	-0.811545
-0.862079	0.335085
-0.922025	-0.820939
-0.872025	0.337147
-0.932005	-0.822695
-0.882047	0.327067
-0.942073	-0.825139
-0.892081	0.329358
-0.952076	-0.821779
-0.902073	0.330198
-0.962064	-0.828728
-0.911999	0.330962
-0.972018	-0.822619
-0.922006	0.327525
-0.982074	-0.823077
-0.932105	0.336383
-0.99202	-0.822924
-0.942043	0.32531
-1.00205	-0.832241
-0.952092	0.3331
-1.01209	-0.822619
-0.961992	0.336994
-1.02207	-0.820862
-0.972018	0.337758
-1.03203	-0.822466
-0.982093	0.338293
-1.04205	-0.826666
-0.992062	0.333787
-1.05208	-0.826513
-1.00207	0.341424
-1.06205	-0.819106
-1.01204	0.345242
-1.07199	-0.833768
-1.02206	0.334169
-1.08203	-0.831859
-1.03202	0.341424
-1.09206	-0.832393
-1.04207	0.337834
-1.10206	-0.858816
-1.05202	0.335391
-1.11198	-0.86462
-1.06203	0.337224
-1.12215	-0.881649
-1.07202	0.3331

File: CoPc(OMe)8_CNT_VFSWV_scans_29_28_C02.txt
Ewe/V	<I>/mA
-0.122038	-0.0207024
-0.0720605	0.0751365
-0.132083	-0.0652236
-0.0820826	0.0669654
-0.142089	-0.0622454
-0.0920705	0.0623071
-0.152073	-0.0649945
-0.102043	0.0567324
-0.162027	-0.0746166
-0.112054	0.0605506
-0.171999	-0.0744639
-0.122072	0.0533723
-0.181995	-0.0814132
-0.132094	0.0448193
-0.192044	-0.0853078
-0.142021	0.0534486
-0.202096	-0.086606
-0.15202	0.058336
-0.212015	-0.0966099
-0.162019	0.0489431
-0.22203	-0.0992064
-0.172037	0.0498594
-0.232037	-0.103025
-0.182029	0.0478739
-0.242066	-0.103177
-0.192002	0.0557396
-0.252012	-0.115243
-0.202062	0.0503176
-0.262004	-0.114785
-0.212027	0.0545178
-0.271995	-0.126774
-0.222041	0.0568851
-0.282113	-0.123262
-0.232037	0.0544414
-0.292089	-0.138611
-0.24207	0.0550523
-0.302134	-0.131585
-0.252008	0.0564269
-0.312137	-0.137695
-0.262011	0.0573433
-0.322106	-0.143498
-0.271984	0.0563505
-0.332067	-0.146629
-0.282159	0.0593288
-0.342097	-0.156022
-0.292127	0.0601688
-0.352073	-0.156481
-0.302096	0.0593288
-0.362107	-0.158466
-0.312107	0.0610852
-0.372167	-0.16847
-0.322095	0.0626889
-0.382071	-0.171219
-0.332105	0.0641398
-0.392059	-0.170608
-0.342116	0.0628416
-0.402127	-0.185041
-0.352085	0.0646744
-0.412065	-0.190922
-0.362095	0.0653617
-0.422087	-0.196114
-0.37211	0.0694091
-0.43209	-0.201231
-0.382098	0.0644453
-0.442089	-0.20734
-0.392047	0.0711655
-0.452092	-0.212839
-0.402096	0.0740674
-0.46208	-0.225897
-0.412088	0.0746783
-0.472052	-0.236588
-0.42211	0.0778093
-0.482048	-0.248043
-0.432082	0.089035
-0.49207	-0.260949
-0.442089	0.0895696
-0.502065	-0.281186
-0.451981	0.100948
-0.512068	-0.306157
-0.462061	0.109883
-0.522071	-0.348082
-0.47203	0.121796
-0.532029	-0.396193
-0.482071	0.128134
-0.542081	-0.448503
-0.492043	0.160208
-0.552012	-0.540447
-0.502069	0.18938
-0.562003	-0.644381
-0.512026	0.234741
-0.572029	-0.767712
-0.522064	0.291939
-0.58204	-0.903184
-0.532029	0.373726
-0.592047	-1.06699
-0.542009	0.48774
-0.602027	-1.244
-0.552069	0.621762
-0.612038	-1.41415
-0.562049	0.774264
-0.622037	-1.57421
-0.572048	0.928676
-0.631998	-1.72908
-0.58201	1.07178
-0.64199	-1.85867
-0.592028	1.20336
-0.651943	-1.9639
-0.602016	1.29981
-0.662007	-2.0253
-0.611988	1.38038
-0.672029	-2.04783
-0.621976	1.4236
-0.68199	-2.03844
-0.632029	1.44239
-0.692047	-1.98826
-0.642055	1.42017
-0.701981	-1.90434
-0.652058	1.3787
-0.712072	-1.79972
-0.661977	1.31577
-0.72209	-1.66997
-0.672003	1.2304
-0.73212	-1.53832
-0.682025	1.13838
-0.742115	-1.40162
-0.691993	1.04162
-0.752122	-1.28043
-0.702138	0.93532
-0.762053	-1.16993
-0.712068	0.83467
-0.772045	-1.08402
-0.722148	0.73127
-0.782112	-0.991921
-0.732128	0.66445
-0.792051	-0.932127
-0.74207	0.587016
-0.80205	-0.876609
-0.752126	0.525236
-0.812099	-0.82827
-0.762049	0.472696
-0.822056	-0.801847
-0.772148	0.426724
-0.832101	-0.777486
-0.782093	0.397705
-0.842073	-0.753737
-0.792093	0.367235
-0.852042	-0.743122
-0.802057	0.347304
-0.862083	-0.73518
-0.812015	0.326761
-0.872083	-0.725634
-0.822033	0.315917
-0.882055	-0.728001
-0.83207	0.303164
-0.892054	-0.730522
-0.842054	0.296673
-0.902031	-0.730598
-0.852096	0.284989
-0.912022	-0.733805
-0.862064	0.288808
-0.92206	-0.738769
-0.87206	0.279644
-0.932032	-0.7335
-0.882086	0.280484
-0.942054	-0.742816
-0.892119	0.284989
-0.952008	-0.732965
-0.902084	0.286669
-0.962057	-0.736096
-0.912049	0.2814
-0.972002	-0.742282
-0.922044	0.280102
-0.982017	-0.730216
-0.932005	0.284531
-0.99202	-0.736783
-0.942039	0.285677
-1.00203	-0.736478
-0.952046	0.283309
-1.01205	-0.739227
-0.962014	0.282393
-1.02201	-0.737318
-0.972018	0.288731
-1.03202	-0.735791
-0.982059	0.288273
-1.04205	-0.739762
-0.992031	0.289342
-1.05204	-0.740678
-1.00211	0.282775
-1.06202	-0.741671
-1.01205	0.284149
-1.07201	-0.747933
-1.02206	0.284989
-1.08207	-0.748238
-1.03206	0.290106
-1.09206	-0.753966
-1.04202	0.282546
-1.10201	-0.770843
-1.052	0.284378
-1.11201	-0.77321
-1.062	0.282698
-1.12209	-0.788101
-1.07202	0.289495

File: CoPc(OMe)8_CNT_VFSWV_scans_30_29_C02.txt
Ewe/V	<I>/mA
-0.122064	-0.0245207
-0.0720949	0.0585651
-0.132052	-0.0608708
-0.0821285	0.051234
-0.142101	-0.071562
-0.0921124	0.0435975
-0.152073	-0.0717911
-0.102115	0.0413065
-0.162103	-0.0700347
-0.11213	0.0386337
-0.172053	-0.0678201
-0.122076	0.0461939
-0.18206	-0.0729366
-0.132079	0.0358845
-0.19204	-0.0770603
-0.14212	0.0361136
-0.20202	-0.080344
-0.152108	0.0395501
-0.212103	-0.0912643
-0.162034	0.0440557
-0.22206	-0.0929444
-0.172064	0.0422229
-0.232044	-0.0919516
-0.182083	0.046423
-0.242078	-0.0971445
-0.192051	0.0387864
-0.252069	-0.0990536
-0.202066	0.0458121
-0.26205	-0.104705
-0.212099	0.0411538
-0.27206	-0.115549
-0.222037	0.0425283
-0.282178	-0.111578
-0.232079	0.0397792
-0.292169	-0.121047
-0.242082	0.0500122
-0.302131	-0.128302
-0.252027	0.048714
-0.312084	-0.128913
-0.262038	0.0443611
-0.322133	-0.128913
-0.272083	0.0506231
-0.332132	-0.138076
-0.282159	0.0476448
-0.342143	-0.142277
-0.292139	0.0513868
-0.352138	-0.150371
-0.302096	0.0433684
-0.362134	-0.153808
-0.312141	0.0479503
-0.372102	-0.161368
-0.322156	0.0489431
-0.382078	-0.163964
-0.332101	0.0546705
-0.392104	-0.156404
-0.342135	0.0593288
-0.402119	-0.163583
-0.352127	0.0567324
-0.412107	-0.180689
-0.36208	0.0522268
-0.422095	-0.184049
-0.372117	0.0525322
-0.432086	-0.180001
-0.382151	0.051234
-0.442135	-0.195656
-0.392139	0.0506995
-0.452138	-0.197107
-0.402153	0.0662017
-0.462107	-0.19894
-0.412153	0.0603979
-0.472091	-0.207035
-0.422083	0.0723873
-0.482098	-0.219559
-0.432086	0.0713946
-0.492081	-0.239948
-0.442101	0.0776566
-0.5021	-0.254763
-0.45213	0.0789548
-0.512042	-0.284317
-0.462114	0.0809403
-0.522113	-0.303637
-0.47206	0.098428
-0.532101	-0.350449
-0.482021	0.113472
-0.542074	-0.415284
-0.492116	0.132487
-0.552054	-0.472176
-0.502111	0.152342
-0.562072	-0.567023
-0.512057	0.185867
-0.572068	-0.678975
-0.522087	0.239323
-0.582029	-0.806505
-0.532063	0.319507
-0.592028	-0.952975
-0.542066	0.406029
-0.602104	-1.11082
-0.552035	0.524701
-0.612064	-1.26348
-0.56208	0.662465
-0.622068	-1.41972
-0.572064	0.798167
-0.632051	-1.56535
-0.582029	0.939749
-0.642054	-1.68517
-0.592032	1.05888
-0.652027	-1.78261
-0.602069	1.15602
-0.662034	-1.83737
-0.612045	1.23597
-0.672033	-1.86295
-0.622014	1.27629
-0.682036	-1.84737
-0.632017	1.29661
-0.692024	-1.80292
-0.642058	1.27545
-0.702023	-1.71205
-0.652016	1.24277
-0.712156	-1.61827
-0.662022	1.18145
-0.722128	-1.49509
-0.672029	1.10646
-0.73212	-1.38016
-0.682048	1.02009
-0.742131	-1.25576
-0.692054	0.923483
-0.752084	-1.14526
-0.702153	0.826193
-0.762145	-1.04591
-0.712118	0.731881
-0.772121	-0.954578
-0.722148	0.65017
-0.782166	-0.879129
-0.732158	0.576095
-0.792104	-0.829491
-0.742127	0.501944
-0.802096	-0.787796
-0.752073	0.45307
-0.812122	-0.746176
-0.762061	0.408855
-0.822098	-0.718838
-0.772067	0.372734
-0.832109	-0.696004
-0.782112	0.336918
-0.842089	-0.682106
-0.7921	0.319278
-0.852103	-0.67004
-0.802096	0.298277
-0.862087	-0.668589
-0.812099	0.282469
-0.872079	-0.656676
-0.822098	0.262767
-0.882116	-0.667749
-0.832047	0.261621
-0.892058	-0.662861
-0.842051	0.249403
-0.902084	-0.656676
-0.852141	0.240926
-0.912087	-0.667596
-0.862072	0.240545
-0.922056	-0.672484
-0.872064	0.236192
-0.932032	-0.672102
-0.882097	0.24253
-0.94205	-0.682411
-0.892066	0.233977
-0.952084	-0.678364
-0.90208	0.237032
-0.962026	-0.674851
-0.912045	0.231839
-0.972037	-0.676989
-0.922067	0.23161
-0.982051	-0.677524
-0.932105	0.241232
-0.992081	-0.67508
-0.942066	0.245203
-1.00203	-0.677218
-0.952107	0.242988
-1.01209	-0.676684
-0.962087	0.24505
-1.02202	-0.669658
-0.972056	0.246654
-1.03205	-0.667291
-0.982066	0.244745
-1.042	-0.673629
-0.992008	0.239857
-1.05205	-0.670956
-1.00207	0.248487
-1.06204	-0.675844
-1.01204	0.243294
-1.07204	-0.682258
-1.02204	0.238941
-1.08207	-0.680731
-1.03202	0.246196
-1.09204	-0.689131
-1.04204	0.243065
-1.10201	-0.699135
-1.05198	0.242301
-1.11203	-0.706466
-1.06198	0.24925
-1.12215	-0.717234
-1.07201	0.238024